{
  "type": "transaction",
  "entry": [
    {
      "fullUrl": "Condition/P0522-Prob-Osteoarthiritis",
      "resource": {
        "id": "P0522-Prob-Osteoarthiritis",
        "meta": {
          "profile": [
            "http://hl7.org/fhir/us/core/StructureDefinition/us-core-condition"
          ]
        },
        "clinicalStatus": {
          "coding": [
            {
              "system": "http://terminology.hl7.org/CodeSystem/condition-clinical",
              "code": "active"
            }
          ]
        },
        "verificationStatus": {
          "coding": [
            {
              "system": "http://terminology.hl7.org/CodeSystem/condition-ver-status",
              "code": "confirmed"
            }
          ]
        },
        "category": [
          {
            "coding": [
              {
                "system": "http://terminology.hl7.org/CodeSystem/condition-category",
                "code": "problem-list-item"
              }
            ]
          }
        ],
        "code": {
          "coding": [
            {
              "system": "http://snomed.info/sct",
              "code": "396275006",
              "display": "Osteoarthiritis"
            }
          ],
          "text": "Osteoarthritis (disorder)"
        },
        "subject": {
          "reference": "Patient/P0522-patientBSJ1"
        },
        "onsetDateTime": "2015-07-06T12:15:00-05:00",
        "asserter": {
          "reference": "Practitioner/P0522-Practitioner-JohnSmith"
        },
        "resourceType": "Condition"
      },
      "request": {
        "method": "PUT",
        "url": "Condition/P0522-Prob-Osteoarthiritis"
      }
    },
    {
      "fullUrl": "Condition/P0522-Prob-CKD",
      "resource": {
        "id": "P0522-Prob-CKD",
        "meta": {
          "profile": [
            "http://hl7.org/fhir/us/core/StructureDefinition/us-core-condition"
          ]
        },
        "clinicalStatus": {
          "coding": [
            {
              "system": "http://terminology.hl7.org/CodeSystem/condition-clinical",
              "code": "active"
            }
          ]
        },
        "verificationStatus": {
          "coding": [
            {
              "system": "http://terminology.hl7.org/CodeSystem/condition-ver-status",
              "code": "confirmed"
            }
          ]
        },
        "category": [
          {
            "coding": [
              {
                "system": "http://terminology.hl7.org/CodeSystem/condition-category",
                "code": "problem-list-item"
              }
            ]
          }
        ],
        "severity": {
          "coding": [
            {
              "system": "http://snomed.info/sct",
              "code": "24484000",
              "display": "Severe"
            }
          ],
          "text": "Severe"
        },
        "code": {
          "coding": [
            {
              "system": "http://snomed.info/sct",
              "code": "433144002",
              "display": "Stage 3 chronic kideny disease"
            }
          ],
          "text": "Chronic kidney disease stage 3 (disorder)"
        },
        "subject": {
          "reference": "Patient/P0522-patientBSJ1"
        },
        "onsetDateTime": "2019-01-01",
        "recordedDate": "2020-03-02",
        "asserter": {
          "reference": "Practitioner/P0522-Practitioner-jones-vince"
        },
        "resourceType": "Condition"
      },
      "request": {
        "method": "PUT",
        "url": "Condition/P0522-Prob-CKD"
      }
    },
    {
      "fullUrl": "Condition/P0522-Prob-Depression",
      "resource": {
        "id": "P0522-Prob-Depression",
        "meta": {
          "profile": [
            "http://hl7.org/fhir/us/core/StructureDefinition/us-core-condition"
          ]
        },
        "clinicalStatus": {
          "coding": [
            {
              "system": "http://terminology.hl7.org/CodeSystem/condition-clinical",
              "code": "active"
            }
          ]
        },
        "verificationStatus": {
          "coding": [
            {
              "system": "http://terminology.hl7.org/CodeSystem/condition-ver-status",
              "code": "confirmed"
            }
          ]
        },
        "category": [
          {
            "coding": [
              {
                "system": "http://terminology.hl7.org/CodeSystem/condition-category",
                "code": "problem-list-item"
              }
            ]
          }
        ],
        "code": {
          "coding": [
            {
              "system": "http://snomed.info/sct",
              "code": "192080009",
              "display": "Depression"
            }
          ],
          "text": "Chronic depression (disorder)"
        },
        "subject": {
          "reference": "Patient/P0522-patientBSJ1"
        },
        "onsetDateTime": "2011-07-06T12:15:00-05:00",
        "asserter": {
          "reference": "Practitioner/P0522-Practitioner-JohnSmith"
        },
        "resourceType": "Condition"
      },
      "request": {
        "method": "PUT",
        "url": "Condition/P0522-Prob-Depression"
      }
    },
    {
      "fullUrl": "Immunization/P0522-Immunization-2020Flu",
      "resource": {
        "id": "P0522-Immunization-2020Flu",
        "meta": {
          "profile": [
            "http://hl7.org/fhir/us/core/StructureDefinition/us-core-immunization"
          ]
        },
        "status": "completed",
        "vaccineCode": {
          "coding": [
            {
              "system": "http://hl7.org/fhir/sid/cvx",
              "code": "158",
              "display": "influenza, injectable, quadrivalent, contains preservative"
            },
            {
              "system": "http://hl7.org/fhir/sid/ndc",
              "code": "49281-0631-15",
              "display": "FLUZONE QUADRIVALENT"
            }
          ]
        },
        "patient": {
          "reference": "Patient/P0522-patientBSJ1"
        },
        "occurrenceDateTime": "2020-10-08T17:28:00-05:00",
        "primarySource": false,
        "performer": [
          {
            "actor": {
              "reference": "Organization/P0522-org-PC-Primary-Care-Texas"
            }
          }
        ],
        "resourceType": "Immunization"
      },
      "request": {
        "method": "PUT",
        "url": "Immunization/P0522-Immunization-2020Flu"
      }
    },
    {
      "fullUrl": "Condition/P0522-Prob-HearingAids",
      "resource": {
        "id": "P0522-Prob-HearingAids",
        "meta": {
          "profile": [
            "http://hl7.org/fhir/us/core/StructureDefinition/us-core-condition"
          ]
        },
        "clinicalStatus": {
          "coding": [
            {
              "system": "http://terminology.hl7.org/CodeSystem/condition-clinical",
              "code": "active"
            }
          ]
        },
        "verificationStatus": {
          "coding": [
            {
              "system": "http://terminology.hl7.org/CodeSystem/condition-ver-status",
              "code": "confirmed"
            }
          ]
        },
        "category": [
          {
            "coding": [
              {
                "system": "http://terminology.hl7.org/CodeSystem/condition-category",
                "code": "problem-list-item",
                "display": "Problem List Item"
              }
            ],
            "text": "Problem"
          }
        ],
        "code": {
          "coding": [
            {
              "system": "http://snomed.info/sct",
              "code": "285055002",
              "display": "Does use hearing aid (finding)"
            }
          ],
          "text": "Does use hearing aid (finding)"
        },
        "subject": {
          "reference": "Patient/P0522-patientBSJ1"
        },
        "onsetDateTime": "2020-11-12",
        "asserter": {
          "reference": "Practitioner/P0522-Practitioner-JillBradley"
        },
        "resourceType": "Condition"
      },
      "request": {
        "method": "PUT",
        "url": "Condition/P0522-Prob-HearingAids"
      }
    },
    {
      "fullUrl": "Condition/P0522-Prob-HearingLoss",
      "resource": {
        "id": "P0522-Prob-HearingLoss",
        "meta": {
          "profile": [
            "http://hl7.org/fhir/us/core/StructureDefinition/us-core-condition"
          ]
        },
        "clinicalStatus": {
          "coding": [
            {
              "system": "http://terminology.hl7.org/CodeSystem/condition-clinical",
              "code": "active"
            }
          ]
        },
        "verificationStatus": {
          "coding": [
            {
              "system": "http://terminology.hl7.org/CodeSystem/condition-ver-status",
              "code": "confirmed"
            }
          ]
        },
        "category": [
          {
            "coding": [
              {
                "system": "http://terminology.hl7.org/CodeSystem/condition-category",
                "code": "problem-list-item",
                "display": "Problem List Item"
              }
            ],
            "text": "Problem"
          }
        ],
        "code": {
          "coding": [
            {
              "system": "http://snomed.info/sct",
              "code": "194424005",
              "display": "Sensorineural hearing loss, bilateral (disorder)"
            }
          ],
          "text": "Sensorineural hearing loss, bilateral (disorder)"
        },
        "subject": {
          "reference": "Patient/P0522-patientBSJ1"
        },
        "onsetDateTime": "2020-11-06",
        "asserter": {
          "reference": "Practitioner/P0522-Practitioner-JillBradley"
        },
        "resourceType": "Condition"
      },
      "request": {
        "method": "PUT",
        "url": "Condition/P0522-Prob-HearingLoss"
      }
    },
    {
      "fullUrl": "MedicationStatement/P0522-MedStmt-VitaminD",
      "resource": {
        "id": "P0522-MedStmt-VitaminD",
        "contained": [
          {
            "id": "Medication-VitaminD-1",
            "code": {
              "coding": [
                {
                  "system": "http://www.nlm.nih.gov/research/umls/rxnorm",
                  "code": "315659",
                  "display": "cholecalciferol 400 UNT"
                }
              ],
              "text": "Vitamin D 400IU"
            },
            "resourceType": "Medication"
          }
        ],
        "status": "active",
        "category": {
          "coding": [
            {
              "system": "http://terminology.hl7.org/CodeSystem/medication-statement-category",
              "code": "community"
            }
          ]
        },
        "medicationReference": {
          "reference": "#Medication-VitaminD-1"
        },
        "subject": {
          "reference": "Patient/P0522-patientBSJ1"
        },
        "effectiveDateTime": "2019-12-05T10:30:00-05:00",
        "dateAsserted": "2019-12-05T10:30:00-05:00",
        "informationSource": {
          "reference": "Practitioner/P0522-Practitioner-JohnSmith"
        },
        "reasonReference": [
          {
            "reference": "Condition/P0522-Prob-Osteoarthiritis"
          }
        ],
        "dosage": [
          {
            "text": "Take 2.5 tabs daily"
          }
        ],
        "resourceType": "MedicationStatement"
      },
      "request": {
        "method": "PUT",
        "url": "MedicationStatement/P0522-MedStmt-VitaminD"
      }
    },
    {
      "fullUrl": "Condition/P0522-Prob-HeartDisease",
      "resource": {
        "id": "P0522-Prob-HeartDisease",
        "meta": {
          "profile": [
            "http://hl7.org/fhir/us/core/StructureDefinition/us-core-condition"
          ]
        },
        "clinicalStatus": {
          "coding": [
            {
              "system": "http://terminology.hl7.org/CodeSystem/condition-clinical",
              "code": "active"
            }
          ]
        },
        "verificationStatus": {
          "coding": [
            {
              "system": "http://terminology.hl7.org/CodeSystem/condition-ver-status",
              "code": "confirmed"
            }
          ]
        },
        "category": [
          {
            "coding": [
              {
                "system": "http://terminology.hl7.org/CodeSystem/condition-category",
                "code": "problem-list-item"
              }
            ]
          }
        ],
        "code": {
          "coding": [
            {
              "system": "http://snomed.info/sct",
              "code": "414545008",
              "display": "Ischemic heart disease"
            }
          ],
          "text": "Ischemic heart disease (disorder)"
        },
        "subject": {
          "reference": "Patient/P0522-patientBSJ1"
        },
        "onsetDateTime": "2012-07-06T12:15:00-05:00",
        "asserter": {
          "reference": "Practitioner/P0522-Practitioner-JohnSmith"
        },
        "resourceType": "Condition"
      },
      "request": {
        "method": "PUT",
        "url": "Condition/P0522-Prob-HeartDisease"
      }
    },
    {
      "fullUrl": "MedicationStatement/P0522-MedStmt-Metformin",
      "resource": {
        "id": "P0522-MedStmt-Metformin",
        "contained": [
          {
            "id": "Medication-Metformin-1",
            "code": {
              "coding": [
                {
                  "system": "http://www.nlm.nih.gov/research/umls/rxnorm",
                  "code": "861007",
                  "display": "metFORMIN hydrochloride 500 MG Oral Tablet"
                }
              ],
              "text": "Metformin 500mg"
            },
            "resourceType": "Medication"
          }
        ],
        "status": "active",
        "category": {
          "coding": [
            {
              "system": "http://terminology.hl7.org/CodeSystem/medication-statement-category",
              "code": "community"
            }
          ]
        },
        "medicationReference": {
          "reference": "#Medication-Metformin-1"
        },
        "subject": {
          "reference": "Patient/P0522-patientBSJ1"
        },
        "effectiveDateTime": "2019-12-05T10:30:00-05:00",
        "dateAsserted": "2019-12-05T10:30:00-05:00",
        "informationSource": {
          "reference": "Practitioner/P0522-Practitioner-JohnSmith"
        },
        "reasonReference": [
          {
            "reference": "Condition/P0522-Prob-Diabetes"
          }
        ],
        "dosage": [
          {
            "text": "Take 500mg (1 pill) twice daily"
          }
        ],
        "resourceType": "MedicationStatement"
      },
      "request": {
        "method": "PUT",
        "url": "MedicationStatement/P0522-MedStmt-Metformin"
      }
    },
    {
      "fullUrl": "Condition/P0522-Prob-Hypertension",
      "resource": {
        "id": "P0522-Prob-Hypertension",
        "meta": {
          "profile": [
            "http://hl7.org/fhir/us/core/StructureDefinition/us-core-condition"
          ]
        },
        "clinicalStatus": {
          "coding": [
            {
              "system": "http://terminology.hl7.org/CodeSystem/condition-clinical",
              "code": "active"
            }
          ]
        },
        "verificationStatus": {
          "coding": [
            {
              "system": "http://terminology.hl7.org/CodeSystem/condition-ver-status",
              "code": "confirmed"
            }
          ]
        },
        "category": [
          {
            "coding": [
              {
                "system": "http://terminology.hl7.org/CodeSystem/condition-category",
                "code": "problem-list-item",
                "display": "Problem List Item"
              }
            ],
            "text": "Problem"
          }
        ],
        "severity": {
          "coding": [
            {
              "system": "http://snomed.info/sct",
              "code": "255604002",
              "display": "Mild"
            }
          ],
          "text": "Mild"
        },
        "code": {
          "coding": [
            {
              "system": "http://snomed.info/sct",
              "code": "38341003",
              "display": "HTN - Hypertension"
            }
          ],
          "text": "Hypertension"
        },
        "subject": {
          "reference": "Patient/P0522-patientBSJ1"
        },
        "onsetDateTime": "2010-03-05",
        "asserter": {
          "reference": "Practitioner/P0522-Practitioner-JohnSmith"
        },
        "resourceType": "Condition"
      },
      "request": {
        "method": "PUT",
        "url": "Condition/P0522-Prob-Hypertension"
      }
    },
    {
      "fullUrl": "MedicationStatement/P0522-MedStmt-Furosemide",
      "resource": {
        "id": "P0522-MedStmt-Furosemide",
        "contained": [
          {
            "id": "Medication-Furosemide-1",
            "code": {
              "coding": [
                {
                  "system": "http://www.nlm.nih.gov/research/umls/rxnorm",
                  "code": "310429",
                  "display": "Furosemide 20 MG Oral Tablet"
                }
              ],
              "text": "Furosemide 20mg"
            },
            "resourceType": "Medication"
          }
        ],
        "status": "active",
        "category": {
          "coding": [
            {
              "system": "http://terminology.hl7.org/CodeSystem/medication-statement-category",
              "code": "community"
            }
          ]
        },
        "medicationReference": {
          "reference": "#Medication-Furosemide-1"
        },
        "subject": {
          "reference": "Patient/P0522-patientBSJ1"
        },
        "effectiveDateTime": "2019-12-05T10:30:00-05:00",
        "dateAsserted": "2019-12-05T10:30:00-05:00",
        "informationSource": {
          "reference": "Practitioner/P0522-Practitioner-JohnSmith"
        },
        "reasonReference": [
          {
            "reference": "Condition/P0522-Prob-Hypertension"
          }
        ],
        "dosage": [
          {
            "text": "Take 20mg (1 pill) daily in the morning"
          }
        ],
        "resourceType": "MedicationStatement"
      },
      "request": {
        "method": "PUT",
        "url": "MedicationStatement/P0522-MedStmt-Furosemide"
      }
    },
    {
      "fullUrl": "MedicationStatement/P0522-MedStmt-Calcium",
      "resource": {
        "id": "P0522-MedStmt-Calcium",
        "contained": [
          {
            "id": "Medication-Calcium-1",
            "code": {
              "coding": [
                {
                  "system": "http://www.nlm.nih.gov/research/umls/rxnorm",
                  "code": "318076",
                  "display": "calcium carbonate 500 MG Oral Tablet"
                }
              ],
              "text": "Calcium 500mg"
            },
            "resourceType": "Medication"
          }
        ],
        "status": "active",
        "category": {
          "coding": [
            {
              "system": "http://terminology.hl7.org/CodeSystem/medication-statement-category",
              "code": "community"
            }
          ]
        },
        "medicationReference": {
          "reference": "#Medication-Calcium-1"
        },
        "subject": {
          "reference": "Patient/P0522-patientBSJ1"
        },
        "effectiveDateTime": "2019-12-05T10:30:00-05:00",
        "dateAsserted": "2019-12-05T10:30:00-05:00",
        "informationSource": {
          "reference": "Practitioner/P0522-Practitioner-JohnSmith"
        },
        "reasonReference": [
          {
            "reference": "Condition/P0522-Prob-CKD"
          }
        ],
        "dosage": [
          {
            "text": "Take 500mg (1 pill) twice daily"
          }
        ],
        "resourceType": "MedicationStatement"
      },
      "request": {
        "method": "PUT",
        "url": "MedicationStatement/P0522-MedStmt-Calcium"
      }
    },
    {
      "fullUrl": "MedicationStatement/P0522-MedStmt-FerrousSulfate",
      "resource": {
        "id": "P0522-MedStmt-FerrousSulfate",
        "contained": [
          {
            "id": "Medication-FerrousSulfate-1",
            "code": {
              "coding": [
                {
                  "system": "http://www.nlm.nih.gov/research/umls/rxnorm",
                  "code": "310325",
                  "display": "ferrous sulfate 325 MG Oral Tablet"
                }
              ],
              "text": "Ferrous Sulfate 325mg"
            },
            "resourceType": "Medication"
          }
        ],
        "status": "active",
        "category": {
          "coding": [
            {
              "system": "http://terminology.hl7.org/CodeSystem/medication-statement-category",
              "code": "community"
            }
          ]
        },
        "medicationReference": {
          "reference": "#Medication-FerrousSulfate-1"
        },
        "subject": {
          "reference": "Patient/P0522-patientBSJ1"
        },
        "effectiveDateTime": "2019-12-05T10:30:00-05:00",
        "dateAsserted": "2019-12-05T10:30:00-05:00",
        "informationSource": {
          "reference": "Practitioner/P0522-Practitioner-JohnSmith"
        },
        "reasonReference": [
          {
            "reference": "Condition/P0522-Prob-CKD"
          }
        ],
        "dosage": [
          {
            "text": "Take three times a day prior to meals"
          }
        ],
        "resourceType": "MedicationStatement"
      },
      "request": {
        "method": "PUT",
        "url": "MedicationStatement/P0522-MedStmt-FerrousSulfate"
      }
    },
    {
      "fullUrl": "MedicationStatement/P0522-MedStmt-Atorvastatin",
      "resource": {
        "id": "P0522-MedStmt-Atorvastatin",
        "contained": [
          {
            "id": "Medication-Atorvastatin40mg-1",
            "code": {
              "coding": [
                {
                  "system": "http://www.nlm.nih.gov/research/umls/rxnorm",
                  "code": "617311",
                  "display": "atorvastatin 40 MG Oral Tablet"
                }
              ],
              "text": "Atorvastatin 40mg"
            },
            "resourceType": "Medication"
          }
        ],
        "status": "active",
        "category": {
          "coding": [
            {
              "system": "http://terminology.hl7.org/CodeSystem/medication-statement-category",
              "code": "community"
            }
          ]
        },
        "medicationReference": {
          "reference": "#Medication-Atorvastatin40mg-1"
        },
        "subject": {
          "reference": "Patient/P0522-patientBSJ1"
        },
        "effectiveDateTime": "2020-07-11T05:42:00-05:00",
        "dateAsserted": "2020-07-11T05:42:00-05:00",
        "informationSource": {
          "reference": "Practitioner/P0522-Practitioner-JohnSmith"
        },
        "reasonReference": [
          {
            "reference": "Condition/P0522-Prob-Dyslipidemia"
          }
        ],
        "dosage": [
          {
            "text": "Take 40 mg (1 pill) nightly"
          }
        ],
        "resourceType": "MedicationStatement"
      },
      "request": {
        "method": "PUT",
        "url": "MedicationStatement/P0522-MedStmt-Atorvastatin"
      }
    },
    {
      "fullUrl": "MedicationStatement/P0522-MedStmt-Sertraline",
      "resource": {
        "id": "P0522-MedStmt-Sertraline",
        "contained": [
          {
            "id": "Medication-Sertraline-1",
            "code": {
              "coding": [
                {
                  "system": "http://www.nlm.nih.gov/research/umls/rxnorm",
                  "code": "312940",
                  "display": "Sertraline 25 MG Oral Tablet"
                }
              ],
              "text": "Sertraline 25mg"
            },
            "resourceType": "Medication"
          }
        ],
        "status": "active",
        "category": {
          "coding": [
            {
              "system": "http://terminology.hl7.org/CodeSystem/medication-statement-category",
              "code": "community"
            }
          ]
        },
        "medicationReference": {
          "reference": "#Medication-Sertraline-1"
        },
        "subject": {
          "reference": "Patient/P0522-patientBSJ1"
        },
        "effectiveDateTime": "2019-12-05T10:30:00-05:00",
        "dateAsserted": "2019-12-05T10:30:00-05:00",
        "informationSource": {
          "reference": "Practitioner/P0522-Practitioner-JohnSmith"
        },
        "reasonReference": [
          {
            "reference": "Condition/P0522-Prob-Depression"
          }
        ],
        "dosage": [
          {
            "text": "Take 25mg (1 pill) nightly"
          }
        ],
        "resourceType": "MedicationStatement"
      },
      "request": {
        "method": "PUT",
        "url": "MedicationStatement/P0522-MedStmt-Sertraline"
      }
    },
    {
      "fullUrl": "Observation/P0522-eCQM-A1cObservation-ok",
      "resource": {
        "id": "P0522-eCQM-A1cObservation-ok",
        "status": "final",
        "category": [
          {
            "coding": [
              {
                "system": "http://terminology.hl7.org/CodeSystem/observation-category",
                "code": "laboratory"
              }
            ]
          }
        ],
        "code": {
          "coding": [
            {
              "system": "http://loinc.org",
              "code": "17856-6",
              "display": "Hemoglobin A1c/Hemoglobin.total in Blood by HPLC"
            }
          ]
        },
        "subject": {
          "reference": "Patient/P0522-patientBSJ1"
        },
        "effectiveDateTime": "2021-02-02T12:30:00-05:00",
        "issued": "2021-02-04T12:30:00-05:00",
        "valueQuantity": {
          "value": 6.7,
          "unit": "%",
          "system": "http://unitsofmeasure.org",
          "code": "%"
        },
        "resourceType": "Observation"
      },
      "request": {
        "method": "PUT",
        "url": "Observation/P0522-eCQM-A1cObservation-ok"
      }
    },
    {
      "fullUrl": "Condition/P0522-Prob-Cataracts",
      "resource": {
        "id": "P0522-Prob-Cataracts",
        "meta": {
          "profile": [
            "http://hl7.org/fhir/us/core/StructureDefinition/us-core-condition"
          ]
        },
        "clinicalStatus": {
          "coding": [
            {
              "system": "http://terminology.hl7.org/CodeSystem/condition-clinical",
              "code": "active"
            }
          ]
        },
        "verificationStatus": {
          "coding": [
            {
              "system": "http://terminology.hl7.org/CodeSystem/condition-ver-status",
              "code": "confirmed"
            }
          ]
        },
        "category": [
          {
            "coding": [
              {
                "system": "http://terminology.hl7.org/CodeSystem/condition-category",
                "code": "problem-list-item"
              }
            ]
          }
        ],
        "code": {
          "coding": [
            {
              "system": "http://snomed.info/sct",
              "code": "95722004",
              "display": "Cataracts"
            }
          ],
          "text": "Bilateral cataracts (disorder)"
        },
        "subject": {
          "reference": "Patient/P0522-patientBSJ1"
        },
        "onsetDateTime": "2017-07-06T12:15:00-05:00",
        "asserter": {
          "reference": "Practitioner/P0522-Practitioner-JohnSmith"
        },
        "resourceType": "Condition"
      },
      "request": {
        "method": "PUT",
        "url": "Condition/P0522-Prob-Cataracts"
      }
    },
    {
      "fullUrl": "MedicationStatement/P0522-MedStmt-Lisinopril",
      "resource": {
        "id": "P0522-MedStmt-Lisinopril",
        "contained": [
          {
            "id": "Medication-Lisinopril-1",
            "code": {
              "coding": [
                {
                  "system": "http://www.nlm.nih.gov/research/umls/rxnorm",
                  "code": "314076",
                  "display": "Lisinopril 10 MG Oral Tablet"
                }
              ],
              "text": "Lisinopril 10 mg"
            },
            "resourceType": "Medication"
          }
        ],
        "status": "active",
        "category": {
          "coding": [
            {
              "system": "http://terminology.hl7.org/CodeSystem/medication-statement-category",
              "code": "community"
            }
          ]
        },
        "medicationReference": {
          "reference": "#Medication-Lisinopril-1"
        },
        "subject": {
          "reference": "Patient/P0522-patientBSJ1"
        },
        "effectiveDateTime": "2019-12-05T10:30:00-05:00",
        "dateAsserted": "2019-12-05T10:30:00-05:00",
        "informationSource": {
          "reference": "Practitioner/P0522-Practitioner-JohnSmith"
        },
        "reasonReference": [
          {
            "reference": "Condition/P0522-Prob-Hypertension"
          }
        ],
        "dosage": [
          {
            "text": "Take 40 mg (4 pills) once per day"
          }
        ],
        "resourceType": "MedicationStatement"
      },
      "request": {
        "method": "PUT",
        "url": "MedicationStatement/P0522-MedStmt-Lisinopril"
      }
    },
    {
      "fullUrl": "MedicationStatement/P0522-MedStmt-Tylenol",
      "resource": {
        "id": "P0522-MedStmt-Tylenol",
        "contained": [
          {
            "id": "Medication-Tylenol-1",
            "code": {
              "coding": [
                {
                  "system": "http://www.nlm.nih.gov/research/umls/rxnorm",
                  "code": "313782",
                  "display": "Acetaminophen 325 MG Oral Tablet"
                }
              ],
              "text": "Tylenol 650mg"
            },
            "resourceType": "Medication"
          }
        ],
        "status": "active",
        "category": {
          "coding": [
            {
              "system": "http://terminology.hl7.org/CodeSystem/medication-statement-category",
              "code": "community"
            }
          ]
        },
        "medicationReference": {
          "reference": "#Medication-Tylenol-1"
        },
        "subject": {
          "reference": "Patient/P0522-patientBSJ1"
        },
        "effectiveDateTime": "2019-12-05T10:30:00-05:00",
        "dateAsserted": "2019-12-05T10:30:00-05:00",
        "informationSource": {
          "reference": "Practitioner/P0522-Practitioner-JohnSmith"
        },
        "reasonReference": [
          {
            "reference": "Condition/P0522-Prob-Osteoarthiritis"
          }
        ],
        "dosage": [
          {
            "text": "Take very 6 hours or as needed"
          }
        ],
        "resourceType": "MedicationStatement"
      },
      "request": {
        "method": "PUT",
        "url": "MedicationStatement/P0522-MedStmt-Tylenol"
      }
    },
    {
      "fullUrl": "Condition/P0522-Prob-Diabetes",
      "resource": {
        "id": "P0522-Prob-Diabetes",
        "meta": {
          "profile": [
            "http://hl7.org/fhir/us/core/StructureDefinition/us-core-condition"
          ]
        },
        "clinicalStatus": {
          "coding": [
            {
              "system": "http://terminology.hl7.org/CodeSystem/condition-clinical",
              "code": "active"
            }
          ]
        },
        "verificationStatus": {
          "coding": [
            {
              "system": "http://terminology.hl7.org/CodeSystem/condition-ver-status",
              "code": "confirmed"
            }
          ]
        },
        "category": [
          {
            "coding": [
              {
                "system": "http://terminology.hl7.org/CodeSystem/condition-category",
                "code": "problem-list-item",
                "display": "Problem List Item"
              }
            ],
            "text": "Problem"
          }
        ],
        "code": {
          "coding": [
            {
              "system": "http://snomed.info/sct",
              "code": "44054006",
              "display": "Diabetes mellitus Type 2 (disorder)"
            }
          ],
          "text": "Diabetes mellitus Type 2"
        },
        "subject": {
          "reference": "Patient/P0522-patientBSJ1"
        },
        "onsetDateTime": "2010-07-06",
        "asserter": {
          "reference": "Practitioner/P0522-Practitioner-JohnSmith"
        },
        "resourceType": "Condition"
      },
      "request": {
        "method": "PUT",
        "url": "Condition/P0522-Prob-Diabetes"
      }
    },
    {
      "fullUrl": "Condition/P0522-Prob-Dyslipidemia",
      "resource": {
        "id": "P0522-Prob-Dyslipidemia",
        "meta": {
          "profile": [
            "http://hl7.org/fhir/us/core/StructureDefinition/us-core-condition"
          ]
        },
        "clinicalStatus": {
          "coding": [
            {
              "system": "http://terminology.hl7.org/CodeSystem/condition-clinical",
              "code": "active"
            }
          ]
        },
        "verificationStatus": {
          "coding": [
            {
              "system": "http://terminology.hl7.org/CodeSystem/condition-ver-status",
              "code": "confirmed"
            }
          ]
        },
        "category": [
          {
            "coding": [
              {
                "system": "http://terminology.hl7.org/CodeSystem/condition-category",
                "code": "problem-list-item",
                "display": "Problem List Item"
              }
            ],
            "text": "Problem"
          }
        ],
        "code": {
          "coding": [
            {
              "system": "http://snomed.info/sct",
              "code": "370992007",
              "display": "Dyslipidemia (disorder)"
            }
          ],
          "text": "Dyslipidemia"
        },
        "subject": {
          "reference": "Patient/P0522-patientBSJ1"
        },
        "onsetDateTime": "2014-08-20",
        "asserter": {
          "reference": "Practitioner/P0522-Practitioner-JohnSmith"
        },
        "resourceType": "Condition"
      },
      "request": {
        "method": "PUT",
        "url": "Condition/P0522-Prob-Dyslipidemia"
      }
    },
    {
      "fullUrl": "AllergyIntolerance/P0522-Allergy-NoKnown",
      "resource": {
        "id": "P0522-Allergy-NoKnown",
        "meta": {
          "profile": [
            "http://hl7.org/fhir/us/core/StructureDefinition/us-core-allergyintolerance"
          ]
        },
        "clinicalStatus": {
          "coding": [
            {
              "system": "http://terminology.hl7.org/CodeSystem/allergyintolerance-clinical",
              "code": "active"
            }
          ]
        },
        "verificationStatus": {
          "coding": [
            {
              "system": "http://terminology.hl7.org/CodeSystem/allergyintolerance-verification",
              "code": "confirmed"
            }
          ]
        },
        "category": [
          "medication"
        ],
        "code": {
          "coding": [
            {
              "system": "http://snomed.info/sct",
              "code": "409137002",
              "display": "No known drug allergy (situation)"
            }
          ],
          "text": "No known drug allergy (situation)"
        },
        "patient": {
          "reference": "Patient/P0522-patientBSJ1"
        },
        "asserter": {
          "reference": "Practitioner/P0522-Practitioner-JohnSmith"
        },
        "resourceType": "AllergyIntolerance"
      },
      "request": {
        "method": "PUT",
        "url": "AllergyIntolerance/P0522-Allergy-NoKnown"
      }
    }
  ],
  "resourceType": "Bundle"
}