{
    "resourceType": "Bundle",
    "id": "mcode-patient-bundle-jenny-m",
    "meta": {
      "profile": [
        "http://hl7.org/fhir/us/mcode/StructureDefinition/mcode-patient-bundle"
      ]
    },
    "type": "collection",
    "entry": [
      {
        "fullUrl": "http://example.org/fhir/Patient/patientJM1",
        "resource": {
          "resourceType": "Patient",
          "id": "patientJM1",
          "meta": {
            "lastUpdated": "2024-11-13T21:54:34.001-05:00",
            "profile": [
              "http://hl7.org/fhir/us/mcode/StructureDefinition/mcode-cancer-patient",
              "http://hl7.org/fhir/us/core/StructureDefinition/us-core-patient"
            ]
          },
          "language": "en-US",
          "text": {
            "status": "generated",
            "div": "\u003Cdiv xmlns=\"http://www.w3.org/1999/xhtml\" xml:lang=\"en-US\" lang=\"en-US\"\u003E\u003Ca name=\"Patient_patientJM1\"\u003E \u003C/a\u003E\u003Cp class=\"res-header-id\"\u003E\u003Cb\u003EGenerated Narrative: Patient patientJM1\u003C/b\u003E\u003C/p\u003E\u003Ca name=\"patientJM1\"\u003E \u003C/a\u003E\u003Ca name=\"hcpatientJM1\"\u003E \u003C/a\u003E\u003Ca name=\"patientJM1-en-US\"\u003E \u003C/a\u003E\u003Cdiv style=\"display: inline-block; background-color: #d9e0e7; padding: 6px; margin: 4px; border: 1px solid #8da1b4; border-radius: 5px; line-height: 60%\"\u003E\u003Cp style=\"margin-bottom: 0px\"\u003ELast updated: 2024-11-13 21:54:34-0500; Language: en-US\u003C/p\u003E\u003Cp style=\"margin-bottom: 0px\"\u003EProfiles: \u003Ca href=\"http://hl7.org/fhir/us/mcode/STU3/StructureDefinition-mcode-cancer-patient.html\"\u003ECancer Patient Profile\u003C/a\u003E, \u003Ca href=\"http://hl7.org/fhir/us/core/STU6.1/StructureDefinition-us-core-patient.html\"\u003EUS Core Patient Profile\u003C/a\u003E\u003C/p\u003E\u003C/div\u003E\u003Cp style=\"border: 1px #661aff solid; background-color: #e6e6ff; padding: 10px;\"\u003EMosley, Jennie Female, DoB: 1955-10-03 ( http://hl7.org/fhir/sid/us-medicare#MedicareHIC#1EG4-TE5-MK73)\u003C/p\u003E\u003Chr/\u003E\u003Ctable class=\"grid\"\u003E\u003Ctr\u003E\u003Ctd style=\"background-color: #f3f5da\" title=\"Record is active\"\u003EActive:\u003C/td\u003E\u003Ctd\u003Etrue\u003C/td\u003E\u003Ctd style=\"background-color: #f3f5da\" title=\"Known Marital status of Patient\"\u003EMarital Status:\u003C/td\u003E\u003Ctd colspan=\"3\"\u003E\u003Cspan title=\"Codes:{http://terminology.hl7.org/CodeSystem/v3-MaritalStatus W}\"\u003EWidowed\u003C/span\u003E\u003C/td\u003E\u003C/tr\u003E\u003Ctr\u003E\u003Ctd style=\"background-color: #f3f5da\" title=\"Other Id (see the one above)\"\u003EOther Id:\u003C/td\u003E\u003Ctd colspan=\"3\"\u003EMedical Record Number/1072702 (use: usual, )\u003C/td\u003E\u003C/tr\u003E\u003Ctr\u003E\u003Ctd style=\"background-color: #f3f5da\" title=\"Ways to contact the Patient\"\u003EContact Detail\u003C/td\u003E\u003Ctd colspan=\"3\"\u003E\u003Cul\u003E\u003Cli\u003Eph: 555-555-5555(Home)\u003C/li\u003E\u003Cli\u003Eph: (410) 444-5555\u003C/li\u003E\u003Cli\u003E31514 25th Ln S, 101, Federal Way, WA 98003\u003C/li\u003E\u003C/ul\u003E\u003C/td\u003E\u003C/tr\u003E\u003Ctr\u003E\u003Ctd style=\"background-color: #f3f5da\" title=\"Language spoken\"\u003ELanguage:\u003C/td\u003E\u003Ctd colspan=\"3\"\u003E\u003Cspan title=\"Codes:{urn:ietf:bcp:47 en}\"\u003EEnglish\u003C/span\u003E (preferred)\u003C/td\u003E\u003C/tr\u003E\u003Ctr\u003E\u003Ctd style=\"background-color: #f3f5da\" title=\"Nominated Contact: half-brother\"\u003Ehalf-brother:\u003C/td\u003E\u003Ctd colspan=\"3\"\u003E\u003Cul\u003E\u003Cli\u003EJames Mosley\u003C/li\u003E\u003Cli\u003E24027 110th Pl SE, 202, Kent, Wa 98030\u003C/li\u003E\u003Cli\u003Eph: (210) 555-3333\u003C/li\u003E\u003C/ul\u003E\u003C/td\u003E\u003C/tr\u003E\u003Ctr\u003E\u003Ctd style=\"background-color: #f3f5da\" title=\"Nominated Contact: unrelated friend\"\u003Eunrelated friend:\u003C/td\u003E\u003Ctd colspan=\"3\"\u003E\u003Cul\u003E\u003Cli\u003ERosemarie Collins\u003C/li\u003E\u003Cli\u003E31514 25th Ln S, 201, Federal Way, WA 98003\u003C/li\u003E\u003Cli\u003Eph: (410) 444-5555\u003C/li\u003E\u003C/ul\u003E\u003C/td\u003E\u003C/tr\u003E\u003Ctr\u003E\u003Ctd style=\"background-color: #f3f5da\" title=\"Concepts classifying the person into a named category of humans sharing common history, traits, geographical origin or nationality.  The race codes used to represent these concepts are based upon the [CDC Race and Ethnicity Code Set Version 1.0](http://www.cdc.gov/phin/resources/vocabulary/index.html#3) which includes over 900 concepts for representing race and ethnicity of which 921 reference race.  The race concepts are grouped by and pre-mapped to the 5 OMB race categories:\n\n - American Indian or Alaska Native\n - Asian\n - Black or African American\n - Native Hawaiian or Other Pacific Islander\n - White.\"\u003EUS Core Race Extension:\u003C/td\u003E\u003Ctd colspan=\"3\"\u003E\u003Cul\u003E\u003Cli\u003EombCategory: CDC Race and Ethnicity 2058-6: African American\u003C/li\u003E\u003Cli\u003Etext: African American\u003C/li\u003E\u003C/ul\u003E\u003C/td\u003E\u003C/tr\u003E\u003C/table\u003E\u003C/div\u003E"
          },
          "extension": [
            {
              "extension": [
                {
                  "url": "ombCategory",
                  "valueCoding": {
                    "system": "urn:oid:2.16.840.1.113883.6.238",
                    "code": "2058-6",
                    "display": "African American"
                  }
                },
                {
                  "url": "text",
                  "valueString": "African American"
                }
              ],
              "url": "http://hl7.org/fhir/us/core/StructureDefinition/us-core-race"
            }
          ],
          "identifier": [
            {
              "use": "usual",
              "type": {
                "coding": [
                  {
                    "system": "http://terminology.hl7.org/CodeSystem/v2-0203",
                    "code": "MR",
                    "display": "Medical Record Number"
                  }
                ],
                "text": "Medical Record Number"
              },
              "system": "http://hospital.smarthealthit.org",
              "value": "1072702"
            },
            {
              "system": "http://hl7.org/fhir/sid/us-medicare",
              "value": "1EG4-TE5-MK73"
            }
          ],
          "active": true,
          "name": [
            {
              "use": "usual",
              "text": "Mosley, Jennie",
              "family": "Mosley",
              "given": [
                "Jennie"
              ]
            }
          ],
          "telecom": [
            {
              "system": "phone",
              "value": "555-555-5555",
              "use": "home"
            },
            {
              "system": "phone",
              "value": "(410) 444-5555"
            }
          ],
          "gender": "female",
          "birthDate": "1955-10-03",
          "address": [
            {
              "text": "31514 25th Ln S, 101, Federal Way, WA 98003",
              "line": [
                "31514 25th Ln S, 101"
              ],
              "city": "Federal Way",
              "state": "Wa",
              "postalCode": "98003",
              "country": "US",
              "period": {
                "start": "2016-12-06"
              }
            }
          ],
          "maritalStatus": {
            "coding": [
              {
                "system": "http://terminology.hl7.org/CodeSystem/v3-MaritalStatus",
                "code": "W"
              }
            ]
          },
          "contact": [
            {
              "relationship": [
                {
                  "coding": [
                    {
                      "system": "http://terminology.hl7.org/CodeSystem/v3-RoleCode",
                      "code": "HBRO"
                    }
                  ]
                }
              ],
              "name": {
                "text": "James Mosley"
              },
              "telecom": [
                {
                  "system": "phone",
                  "value": "(210) 555-3333"
                }
              ],
              "address": {
                "text": "24027 110th Pl SE, 202, Kent, Wa 98030"
              }
            },
            {
              "relationship": [
                {
                  "coding": [
                    {
                      "system": "http://terminology.hl7.org/CodeSystem/v3-RoleCode",
                      "code": "FRND"
                    }
                  ]
                }
              ],
              "name": {
                "text": "Rosemarie Collins"
              },
              "telecom": [
                {
                  "system": "phone",
                  "value": "(410) 444-5555"
                }
              ],
              "address": {
                "text": "31514 25th Ln S, 201, Federal Way, WA 98003"
              }
            }
          ],
          "communication": [
            {
              "language": {
                "coding": [
                  {
                    "system": "urn:ietf:bcp:47",
                    "code": "en",
                    "display": "English"
                  }
                ]
              },
              "preferred": true
            }
          ]
        }
      },
      {
        "fullUrl": "http://example.org/fhir/Condition/primary-cancer-condition-jenny-m",
        "resource": {
          "resourceType": "Condition",
          "id": "primary-cancer-condition-jenny-m",
          "meta": {
            "profile": [
              "http://hl7.org/fhir/us/mcode/StructureDefinition/mcode-primary-cancer-condition"
            ]
          },
          "text": {
            "status": "extensions",
            "div": "\u003Cdiv xmlns=\"http://www.w3.org/1999/xhtml\"\u003E\u003Ca name=\"Condition_primary-cancer-condition-jenny-m\"\u003E \u003C/a\u003E\u003Cp class=\"res-header-id\"\u003E\u003Cb\u003EGenerated Narrative: Condition primary-cancer-condition-jenny-m\u003C/b\u003E\u003C/p\u003E\u003Ca name=\"primary-cancer-condition-jenny-m\"\u003E \u003C/a\u003E\u003Ca name=\"hcprimary-cancer-condition-jenny-m\"\u003E \u003C/a\u003E\u003Ca name=\"primary-cancer-condition-jenny-m-en-US\"\u003E \u003C/a\u003E\u003Cp\u003E\u003Cb\u003EHistology-Morphology-Behavior Extension\u003C/b\u003E: \u003Cspan title=\"Codes:{http://snomed.info/sct 82711006}\"\u003EInfiltrating duct carcinoma (morphologic abnormality)\u003C/span\u003E\u003C/p\u003E\u003Cp\u003E\u003Cb\u003EclinicalStatus\u003C/b\u003E: \u003Cspan title=\"Codes:{http://terminology.hl7.org/CodeSystem/condition-clinical remission}\"\u003ERemission\u003C/span\u003E\u003C/p\u003E\u003Cp\u003E\u003Cb\u003EverificationStatus\u003C/b\u003E: \u003Cspan title=\"Codes:{http://terminology.hl7.org/CodeSystem/condition-ver-status confirmed}\"\u003EConfirmed\u003C/span\u003E\u003C/p\u003E\u003Cp\u003E\u003Cb\u003Ecategory\u003C/b\u003E: \u003Cspan title=\"Codes:{http://terminology.hl7.org/CodeSystem/condition-category problem-list-item}\"\u003EProblem List Item\u003C/span\u003E\u003C/p\u003E\u003Cp\u003E\u003Cb\u003Ecode\u003C/b\u003E: \u003Cspan title=\"Codes:{http://snomed.info/sct 353431000119107}\"\u003EPrimary malignant neoplasm of female left breast (disorder)\u003C/span\u003E\u003C/p\u003E\u003Cp\u003E\u003Cb\u003Esubject\u003C/b\u003E: \u003Ca href=\"Patient-patientJM1.html\"\u003EMosley, Jennie Female, DoB: 1955-10-03 ( http://hl7.org/fhir/sid/us-medicare#MedicareHIC#1EG4-TE5-MK73)\u003C/a\u003E\u003C/p\u003E\u003Cp\u003E\u003Cb\u003Eonset\u003C/b\u003E: 2018-03-16\u003C/p\u003E\u003Cp\u003E\u003Cb\u003Easserter\u003C/b\u003E: \u003Ca href=\"Practitioner-us-core-practitioner-owen-oncologist.html\"\u003EPractitioner Owen Oncologist \u003C/a\u003E\u003C/p\u003E\u003Ch3\u003EStages\u003C/h3\u003E\u003Ctable class=\"grid\"\u003E\u003Ctr\u003E\u003Ctd style=\"display: none\"\u003E-\u003C/td\u003E\u003Ctd\u003E\u003Cb\u003ESummary\u003C/b\u003E\u003C/td\u003E\u003Ctd\u003E\u003Cb\u003EAssessment\u003C/b\u003E\u003C/td\u003E\u003Ctd\u003E\u003Cb\u003EType\u003C/b\u003E\u003C/td\u003E\u003C/tr\u003E\u003Ctr\u003E\u003Ctd style=\"display: none\"\u003E*\u003C/td\u003E\u003Ctd\u003E\u003Cspan title=\"Codes:{http://snomed.info/sct 1222806003}\"\u003EAmerican Joint Committee on Cancer stage IIIC (qualifier value)\u003C/span\u003E\u003C/td\u003E\u003Ctd\u003E\u003Ca href=\"Observation-tnm-clinical-stage-group-jenny-m.html\"\u003EObservation Clinical TNM stage grouping\u003C/a\u003E\u003C/td\u003E\u003Ctd\u003E\u003Cspan title=\"Codes:{http://snomed.info/sct 897275008}\"\u003EAmerican Joint Commission on Cancer, Cancer Staging Manual, 8th edition neoplasm staging system (tumor staging)\u003C/span\u003E\u003C/td\u003E\u003C/tr\u003E\u003C/table\u003E\u003C/div\u003E"
          },
          "extension": [
            {
              "url": "http://hl7.org/fhir/us/mcode/StructureDefinition/mcode-histology-morphology-behavior",
              "valueCodeableConcept": {
                "coding": [
                  {
                    "system": "http://snomed.info/sct",
                    "version": "http://snomed.info/sct/900000000000207008",
                    "code": "82711006",
                    "display": "Infiltrating duct carcinoma (morphologic abnormality)"
                  }
                ]
              }
            }
          ],
          "clinicalStatus": {
            "coding": [
              {
                "system": "http://terminology.hl7.org/CodeSystem/condition-clinical",
                "code": "remission"
              }
            ]
          },
          "verificationStatus": {
            "coding": [
              {
                "system": "http://terminology.hl7.org/CodeSystem/condition-ver-status",
                "code": "confirmed"
              }
            ]
          },
          "category": [
            {
              "coding": [
                {
                  "system": "http://terminology.hl7.org/CodeSystem/condition-category",
                  "code": "problem-list-item"
                }
              ]
            }
          ],
          "code": {
            "coding": [
              {
                "system": "http://snomed.info/sct",
                "version": "http://snomed.info/sct/900000000000207008",
                "code": "353431000119107",
                "display": "Primary malignant neoplasm of female left breast (disorder)"
              }
            ]
          },
          "subject": {
            "reference": "Patient/patientJM1"
          },
          "onsetDateTime": "2018-03-16",
          "asserter": {
            "reference": "Practitioner/us-core-practitioner-owen-oncologist"
          },
          "stage": [
            {
              "summary": {
                "coding": [
                  {
                    "system": "http://snomed.info/sct",
                    "version": "http://snomed.info/sct/900000000000207008",
                    "code": "1222806003",
                    "display": "American Joint Committee on Cancer stage IIIC (qualifier value)"
                  }
                ]
              },
              "assessment": [
                {
                  "reference": "Observation/tnm-clinical-stage-group-jenny-m"
                }
              ],
              "type": {
                "coding": [
                  {
                    "system": "http://snomed.info/sct",
                    "version": "http://snomed.info/sct/900000000000207008",
                    "code": "897275008",
                    "display": "American Joint Commission on Cancer, Cancer Staging Manual, 8th edition neoplasm staging system (tumor staging)"
                  }
                ]
              }
            }
          ]
        }
      },
      {
        "fullUrl": "http://example.org/fhir/MedicationRequest/cancer-related-medication-request-cyclophosphamide-jenny-m",
        "resource": {
          "resourceType": "MedicationRequest",
          "id": "cancer-related-medication-request-cyclophosphamide-jenny-m",
          "meta": {
            "profile": [
              "http://hl7.org/fhir/us/mcode/StructureDefinition/mcode-cancer-related-medication-request"
            ]
          },
          "text": {
            "status": "extensions",
            "div": "\u003Cdiv xmlns=\"http://www.w3.org/1999/xhtml\"\u003E\u003Ca name=\"MedicationRequest_cancer-related-medication-request-cyclophosphamide-jenny-m\"\u003E \u003C/a\u003E\u003Cp class=\"res-header-id\"\u003E\u003Cb\u003EGenerated Narrative: MedicationRequest cancer-related-medication-request-cyclophosphamide-jenny-m\u003C/b\u003E\u003C/p\u003E\u003Ca name=\"cancer-related-medication-request-cyclophosphamide-jenny-m\"\u003E \u003C/a\u003E\u003Ca name=\"hccancer-related-medication-request-cyclophosphamide-jenny-m\"\u003E \u003C/a\u003E\u003Ca name=\"cancer-related-medication-request-cyclophosphamide-jenny-m-en-US\"\u003E \u003C/a\u003E\u003Cp\u003E\u003Cb\u003EProcedure Intent Extension\u003C/b\u003E: \u003Cspan title=\"Codes:{http://snomed.info/sct 373808002}\"\u003ECurative - procedure intent (qualifier value)\u003C/span\u003E\u003C/p\u003E\u003Cp\u003E\u003Cb\u003Estatus\u003C/b\u003E: Active\u003C/p\u003E\u003Cp\u003E\u003Cb\u003Eintent\u003C/b\u003E: Order\u003C/p\u003E\u003Cp\u003E\u003Cb\u003Ecategory\u003C/b\u003E: \u003Cspan title=\"Codes:{http://terminology.hl7.org/CodeSystem/medicationrequest-category outpatient}\"\u003EOutpatient\u003C/span\u003E\u003C/p\u003E\u003Cp\u003E\u003Cb\u003Emedication\u003C/b\u003E: \u003Cspan title=\"Codes:{http://www.nlm.nih.gov/research/umls/rxnorm 3002}\"\u003Ecyclophosphamide\u003C/span\u003E\u003C/p\u003E\u003Cp\u003E\u003Cb\u003Esubject\u003C/b\u003E: \u003Ca href=\"Patient-patientJM1.html\"\u003EMosley, Jennie Female, DoB: 1955-10-03 ( http://hl7.org/fhir/sid/us-medicare#MedicareHIC#1EG4-TE5-MK73)\u003C/a\u003E\u003C/p\u003E\u003Cp\u003E\u003Cb\u003EauthoredOn\u003C/b\u003E: 2018-04-12\u003C/p\u003E\u003Cp\u003E\u003Cb\u003Erequester\u003C/b\u003E: \u003Ca href=\"Practitioner-us-core-practitioner-owen-oncologist.html\"\u003EPractitioner Owen Oncologist \u003C/a\u003E\u003C/p\u003E\u003Cp\u003E\u003Cb\u003EreasonReference\u003C/b\u003E: \u003Ca href=\"Condition-primary-cancer-condition-jenny-m.html\"\u003ECondition Primary malignant neoplasm of female left breast (disorder)\u003C/a\u003E\u003C/p\u003E\u003Cblockquote\u003E\u003Cp\u003E\u003Cb\u003EdosageInstruction\u003C/b\u003E\u003C/p\u003E\u003C/blockquote\u003E\u003C/div\u003E"
          },
          "extension": [
            {
              "url": "http://hl7.org/fhir/us/mcode/StructureDefinition/mcode-procedure-intent",
              "valueCodeableConcept": {
                "coding": [
                  {
                    "system": "http://snomed.info/sct",
                    "version": "http://snomed.info/sct/900000000000207008",
                    "code": "373808002",
                    "display": "Curative - procedure intent (qualifier value)"
                  }
                ]
              }
            }
          ],
          "status": "active",
          "intent": "order",
          "category": [
            {
              "coding": [
                {
                  "system": "http://terminology.hl7.org/CodeSystem/medicationrequest-category",
                  "code": "outpatient"
                }
              ]
            }
          ],
          "medicationCodeableConcept": {
            "coding": [
              {
                "system": "http://www.nlm.nih.gov/research/umls/rxnorm",
                "code": "3002",
                "display": "cyclophosphamide"
              }
            ]
          },
          "subject": {
            "reference": "Patient/patientJM1"
          },
          "authoredOn": "2018-04-12",
          "requester": {
            "reference": "Practitioner/us-core-practitioner-owen-oncologist"
          },
          "reasonReference": [
            {
              "reference": "Condition/primary-cancer-condition-jenny-m"
            }
          ],
          "dosageInstruction": [
            {
              "text": "cyclophosphamide (600 mg/m² IV), 932.59mg",
              "timing": {
                "repeat": {
                  "boundsPeriod": {
                    "start": "2018-04-01"
                  }
                }
              },
              "route": {
                "coding": [
                  {
                    "system": "http://snomed.info/sct",
                    "version": "http://snomed.info/sct/900000000000207008",
                    "code": "47625008",
                    "display": "Intravenous route (qualifier value)"
                  }
                ]
              },
              "doseAndRate": [
                {
                  "doseQuantity": {
                    "value": 932.59,
                    "unit": "mg",
                    "system": "http://unitsofmeasure.org",
                    "code": "mg"
                  }
                }
              ],
              "maxDosePerPeriod": {
                "numerator": {
                  "value": 1
                },
                "denominator": {
                  "value": 3,
                  "unit": "week",
                  "system": "http://unitsofmeasure.org",
                  "code": "wk"
                }
              }
            }
          ]
        }
      },
      {
        "fullUrl": "http://example.org/fhir/MedicationRequest/cancer-related-medication-request-doxorubicin-jenny-m",
        "resource": {
          "resourceType": "MedicationRequest",
          "id": "cancer-related-medication-request-doxorubicin-jenny-m",
          "meta": {
            "profile": [
              "http://hl7.org/fhir/us/mcode/StructureDefinition/mcode-cancer-related-medication-request"
            ]
          },
          "text": {
            "status": "extensions",
            "div": "\u003Cdiv xmlns=\"http://www.w3.org/1999/xhtml\"\u003E\u003Ca name=\"MedicationRequest_cancer-related-medication-request-doxorubicin-jenny-m\"\u003E \u003C/a\u003E\u003Cp class=\"res-header-id\"\u003E\u003Cb\u003EGenerated Narrative: MedicationRequest cancer-related-medication-request-doxorubicin-jenny-m\u003C/b\u003E\u003C/p\u003E\u003Ca name=\"cancer-related-medication-request-doxorubicin-jenny-m\"\u003E \u003C/a\u003E\u003Ca name=\"hccancer-related-medication-request-doxorubicin-jenny-m\"\u003E \u003C/a\u003E\u003Ca name=\"cancer-related-medication-request-doxorubicin-jenny-m-en-US\"\u003E \u003C/a\u003E\u003Cp\u003E\u003Cb\u003EProcedure Intent Extension\u003C/b\u003E: \u003Cspan title=\"Codes:{http://snomed.info/sct 373808002}\"\u003ECurative - procedure intent (qualifier value)\u003C/span\u003E\u003C/p\u003E\u003Cp\u003E\u003Cb\u003Estatus\u003C/b\u003E: Active\u003C/p\u003E\u003Cp\u003E\u003Cb\u003Eintent\u003C/b\u003E: Order\u003C/p\u003E\u003Cp\u003E\u003Cb\u003Ecategory\u003C/b\u003E: \u003Cspan title=\"Codes:{http://terminology.hl7.org/CodeSystem/medicationrequest-category outpatient}\"\u003EOutpatient\u003C/span\u003E\u003C/p\u003E\u003Cp\u003E\u003Cb\u003Emedication\u003C/b\u003E: \u003Cspan title=\"Codes:{http://www.nlm.nih.gov/research/umls/rxnorm 3639}\"\u003EDOXOrubicin\u003C/span\u003E\u003C/p\u003E\u003Cp\u003E\u003Cb\u003Esubject\u003C/b\u003E: \u003Ca href=\"Patient-patientJM1.html\"\u003EMosley, Jennie Female, DoB: 1955-10-03 ( http://hl7.org/fhir/sid/us-medicare#MedicareHIC#1EG4-TE5-MK73)\u003C/a\u003E\u003C/p\u003E\u003Cp\u003E\u003Cb\u003EauthoredOn\u003C/b\u003E: 2018-04-12\u003C/p\u003E\u003Cp\u003E\u003Cb\u003Erequester\u003C/b\u003E: \u003Ca href=\"Practitioner-us-core-practitioner-owen-oncologist.html\"\u003EPractitioner Owen Oncologist \u003C/a\u003E\u003C/p\u003E\u003Cp\u003E\u003Cb\u003EreasonReference\u003C/b\u003E: \u003Ca href=\"Condition-primary-cancer-condition-jenny-m.html\"\u003ECondition Primary malignant neoplasm of female left breast (disorder)\u003C/a\u003E\u003C/p\u003E\u003Cblockquote\u003E\u003Cp\u003E\u003Cb\u003EdosageInstruction\u003C/b\u003E\u003C/p\u003E\u003C/blockquote\u003E\u003C/div\u003E"
          },
          "extension": [
            {
              "url": "http://hl7.org/fhir/us/mcode/StructureDefinition/mcode-procedure-intent",
              "valueCodeableConcept": {
                "coding": [
                  {
                    "system": "http://snomed.info/sct",
                    "version": "http://snomed.info/sct/900000000000207008",
                    "code": "373808002",
                    "display": "Curative - procedure intent (qualifier value)"
                  }
                ]
              }
            }
          ],
          "status": "active",
          "intent": "order",
          "category": [
            {
              "coding": [
                {
                  "system": "http://terminology.hl7.org/CodeSystem/medicationrequest-category",
                  "code": "outpatient"
                }
              ]
            }
          ],
          "medicationCodeableConcept": {
            "coding": [
              {
                "system": "http://www.nlm.nih.gov/research/umls/rxnorm",
                "code": "3639",
                "display": "DOXOrubicin"
              }
            ]
          },
          "subject": {
            "reference": "Patient/patientJM1"
          },
          "authoredOn": "2018-04-12",
          "requester": {
            "reference": "Practitioner/us-core-practitioner-owen-oncologist"
          },
          "reasonReference": [
            {
              "reference": "Condition/primary-cancer-condition-jenny-m"
            }
          ],
          "dosageInstruction": [
            {
              "text": "doxorubicin (60 mg/m² IV)",
              "timing": {
                "repeat": {
                  "boundsPeriod": {
                    "start": "2018-04-01"
                  }
                }
              },
              "route": {
                "coding": [
                  {
                    "system": "http://snomed.info/sct",
                    "version": "http://snomed.info/sct/900000000000207008",
                    "code": "47625008",
                    "display": "Intravenous route (qualifier value)"
                  }
                ]
              },
              "doseAndRate": [
                {
                  "rateQuantity": {
                    "value": 60,
                    "unit": "mg/m2",
                    "system": "http://unitsofmeasure.org",
                    "code": "mg/m2"
                  }
                }
              ],
              "maxDosePerPeriod": {
                "numerator": {
                  "value": 1
                },
                "denominator": {
                  "value": 3,
                  "unit": "week",
                  "system": "http://unitsofmeasure.org",
                  "code": "wk"
                }
              }
            }
          ]
        }
      },
      {
        "fullUrl": "http://example.org/fhir/MedicationRequest/cancer-related-medication-request-paclitaxel-jenny-m",
        "resource": {
          "resourceType": "MedicationRequest",
          "id": "cancer-related-medication-request-paclitaxel-jenny-m",
          "meta": {
            "profile": [
              "http://hl7.org/fhir/us/mcode/StructureDefinition/mcode-cancer-related-medication-request"
            ]
          },
          "text": {
            "status": "extensions",
            "div": "\u003Cdiv xmlns=\"http://www.w3.org/1999/xhtml\"\u003E\u003Ca name=\"MedicationRequest_cancer-related-medication-request-paclitaxel-jenny-m\"\u003E \u003C/a\u003E\u003Cp class=\"res-header-id\"\u003E\u003Cb\u003EGenerated Narrative: MedicationRequest cancer-related-medication-request-paclitaxel-jenny-m\u003C/b\u003E\u003C/p\u003E\u003Ca name=\"cancer-related-medication-request-paclitaxel-jenny-m\"\u003E \u003C/a\u003E\u003Ca name=\"hccancer-related-medication-request-paclitaxel-jenny-m\"\u003E \u003C/a\u003E\u003Ca name=\"cancer-related-medication-request-paclitaxel-jenny-m-en-US\"\u003E \u003C/a\u003E\u003Cp\u003E\u003Cb\u003EProcedure Intent Extension\u003C/b\u003E: \u003Cspan title=\"Codes:{http://snomed.info/sct 373808002}\"\u003ECurative - procedure intent (qualifier value)\u003C/span\u003E\u003C/p\u003E\u003Cp\u003E\u003Cb\u003Estatus\u003C/b\u003E: Active\u003C/p\u003E\u003Cp\u003E\u003Cb\u003Eintent\u003C/b\u003E: Order\u003C/p\u003E\u003Cp\u003E\u003Cb\u003Ecategory\u003C/b\u003E: \u003Cspan title=\"Codes:{http://terminology.hl7.org/CodeSystem/medicationrequest-category outpatient}\"\u003EOutpatient\u003C/span\u003E\u003C/p\u003E\u003Cp\u003E\u003Cb\u003Emedication\u003C/b\u003E: \u003Cspan title=\"Codes:{http://www.nlm.nih.gov/research/umls/rxnorm 56946}\"\u003EPACLitaxel\u003C/span\u003E\u003C/p\u003E\u003Cp\u003E\u003Cb\u003Esubject\u003C/b\u003E: \u003Ca href=\"Patient-patientJM1.html\"\u003EMosley, Jennie Female, DoB: 1955-10-03 ( http://hl7.org/fhir/sid/us-medicare#MedicareHIC#1EG4-TE5-MK73)\u003C/a\u003E\u003C/p\u003E\u003Cp\u003E\u003Cb\u003EauthoredOn\u003C/b\u003E: 2018-04-12\u003C/p\u003E\u003Cp\u003E\u003Cb\u003Erequester\u003C/b\u003E: \u003Ca href=\"Practitioner-us-core-practitioner-owen-oncologist.html\"\u003EPractitioner Owen Oncologist \u003C/a\u003E\u003C/p\u003E\u003Cp\u003E\u003Cb\u003EreasonReference\u003C/b\u003E: \u003Ca href=\"Condition-primary-cancer-condition-jenny-m.html\"\u003ECondition Primary malignant neoplasm of female left breast (disorder)\u003C/a\u003E\u003C/p\u003E\u003Cblockquote\u003E\u003Cp\u003E\u003Cb\u003EdosageInstruction\u003C/b\u003E\u003C/p\u003E\u003C/blockquote\u003E\u003C/div\u003E"
          },
          "extension": [
            {
              "url": "http://hl7.org/fhir/us/mcode/StructureDefinition/mcode-procedure-intent",
              "valueCodeableConcept": {
                "coding": [
                  {
                    "system": "http://snomed.info/sct",
                    "version": "http://snomed.info/sct/900000000000207008",
                    "code": "373808002",
                    "display": "Curative - procedure intent (qualifier value)"
                  }
                ]
              }
            }
          ],
          "status": "active",
          "intent": "order",
          "category": [
            {
              "coding": [
                {
                  "system": "http://terminology.hl7.org/CodeSystem/medicationrequest-category",
                  "code": "outpatient"
                }
              ]
            }
          ],
          "medicationCodeableConcept": {
            "coding": [
              {
                "system": "http://www.nlm.nih.gov/research/umls/rxnorm",
                "code": "56946",
                "display": "PACLitaxel"
              }
            ]
          },
          "subject": {
            "reference": "Patient/patientJM1"
          },
          "authoredOn": "2018-04-12",
          "requester": {
            "reference": "Practitioner/us-core-practitioner-owen-oncologist"
          },
          "reasonReference": [
            {
              "reference": "Condition/primary-cancer-condition-jenny-m"
            }
          ],
          "dosageInstruction": [
            {
              "text": "PACLitaxel (175 mg/m² IV), 272.01mg",
              "timing": {
                "repeat": {
                  "boundsPeriod": {
                    "start": "2018-04-12"
                  }
                }
              },
              "route": {
                "coding": [
                  {
                    "system": "http://snomed.info/sct",
                    "version": "http://snomed.info/sct/900000000000207008",
                    "code": "47625008",
                    "display": "Intravenous route (qualifier value)"
                  }
                ]
              },
              "doseAndRate": [
                {
                  "doseQuantity": {
                    "value": 272.01,
                    "unit": "mg",
                    "system": "http://unitsofmeasure.org",
                    "code": "mg"
                  }
                }
              ],
              "maxDosePerPeriod": {
                "numerator": {
                  "value": 1
                },
                "denominator": {
                  "value": 3,
                  "unit": "week",
                  "system": "http://unitsofmeasure.org",
                  "code": "wk"
                }
              }
            }
          ]
        }
      },
      {
        "fullUrl": "http://example.org/fhir/MedicationRequest/cancer-related-medication-request-anastrozole-jenny-m",
        "resource": {
          "resourceType": "MedicationRequest",
          "id": "cancer-related-medication-request-anastrozole-jenny-m",
          "meta": {
            "profile": [
              "http://hl7.org/fhir/us/mcode/StructureDefinition/mcode-cancer-related-medication-request"
            ]
          },
          "text": {
            "status": "extensions",
            "div": "\u003Cdiv xmlns=\"http://www.w3.org/1999/xhtml\"\u003E\u003Ca name=\"MedicationRequest_cancer-related-medication-request-anastrozole-jenny-m\"\u003E \u003C/a\u003E\u003Cp class=\"res-header-id\"\u003E\u003Cb\u003EGenerated Narrative: MedicationRequest cancer-related-medication-request-anastrozole-jenny-m\u003C/b\u003E\u003C/p\u003E\u003Ca name=\"cancer-related-medication-request-anastrozole-jenny-m\"\u003E \u003C/a\u003E\u003Ca name=\"hccancer-related-medication-request-anastrozole-jenny-m\"\u003E \u003C/a\u003E\u003Ca name=\"cancer-related-medication-request-anastrozole-jenny-m-en-US\"\u003E \u003C/a\u003E\u003Cp\u003E\u003Cb\u003EProcedure Intent Extension\u003C/b\u003E: \u003Cspan title=\"Codes:{http://snomed.info/sct 373808002}\"\u003ECurative - procedure intent (qualifier value)\u003C/span\u003E\u003C/p\u003E\u003Cp\u003E\u003Cb\u003Estatus\u003C/b\u003E: Active\u003C/p\u003E\u003Cp\u003E\u003Cb\u003Eintent\u003C/b\u003E: Order\u003C/p\u003E\u003Cp\u003E\u003Cb\u003Ecategory\u003C/b\u003E: \u003Cspan title=\"Codes:{http://terminology.hl7.org/CodeSystem/medicationrequest-category community}\"\u003ECommunity\u003C/span\u003E\u003C/p\u003E\u003Cp\u003E\u003Cb\u003Emedication\u003C/b\u003E: \u003Cspan title=\"Codes:{http://www.nlm.nih.gov/research/umls/rxnorm 84857}\"\u003Eanastrozole\u003C/span\u003E\u003C/p\u003E\u003Cp\u003E\u003Cb\u003Esubject\u003C/b\u003E: \u003Ca href=\"Patient-patientJM1.html\"\u003EMosley, Jennie Female, DoB: 1955-10-03 ( http://hl7.org/fhir/sid/us-medicare#MedicareHIC#1EG4-TE5-MK73)\u003C/a\u003E\u003C/p\u003E\u003Cp\u003E\u003Cb\u003EauthoredOn\u003C/b\u003E: 2018-09-30\u003C/p\u003E\u003Cp\u003E\u003Cb\u003Erequester\u003C/b\u003E: \u003Ca href=\"Practitioner-us-core-practitioner-owen-oncologist.html\"\u003EPractitioner Owen Oncologist \u003C/a\u003E\u003C/p\u003E\u003Cp\u003E\u003Cb\u003EreasonReference\u003C/b\u003E: \u003Ca href=\"Condition-primary-cancer-condition-jenny-m.html\"\u003ECondition Primary malignant neoplasm of female left breast (disorder)\u003C/a\u003E\u003C/p\u003E\u003Cblockquote\u003E\u003Cp\u003E\u003Cb\u003EdosageInstruction\u003C/b\u003E\u003C/p\u003E\u003C/blockquote\u003E\u003C/div\u003E"
          },
          "extension": [
            {
              "url": "http://hl7.org/fhir/us/mcode/StructureDefinition/mcode-procedure-intent",
              "valueCodeableConcept": {
                "coding": [
                  {
                    "system": "http://snomed.info/sct",
                    "version": "http://snomed.info/sct/900000000000207008",
                    "code": "373808002",
                    "display": "Curative - procedure intent (qualifier value)"
                  }
                ]
              }
            }
          ],
          "status": "active",
          "intent": "order",
          "category": [
            {
              "coding": [
                {
                  "system": "http://terminology.hl7.org/CodeSystem/medicationrequest-category",
                  "code": "community"
                }
              ]
            }
          ],
          "medicationCodeableConcept": {
            "coding": [
              {
                "system": "http://www.nlm.nih.gov/research/umls/rxnorm",
                "code": "84857",
                "display": "anastrozole"
              }
            ]
          },
          "subject": {
            "reference": "Patient/patientJM1"
          },
          "authoredOn": "2018-09-30",
          "requester": {
            "reference": "Practitioner/us-core-practitioner-owen-oncologist"
          },
          "reasonReference": [
            {
              "reference": "Condition/primary-cancer-condition-jenny-m"
            }
          ],
          "dosageInstruction": [
            {
              "text": "1mg orally once daily",
              "timing": {
                "repeat": {
                  "boundsPeriod": {
                    "start": "2018-09-30"
                  }
                }
              },
              "route": {
                "coding": [
                  {
                    "system": "http://snomed.info/sct",
                    "version": "http://snomed.info/sct/900000000000207008",
                    "code": "26643006",
                    "display": "Oral route (qualifier value)"
                  }
                ]
              },
              "doseAndRate": [
                {
                  "doseQuantity": {
                    "value": 1,
                    "unit": "mg",
                    "system": "http://unitsofmeasure.org",
                    "code": "mg"
                  }
                }
              ],
              "maxDosePerPeriod": {
                "numerator": {
                  "value": 1
                },
                "denominator": {
                  "value": 1,
                  "unit": "day",
                  "system": "http://unitsofmeasure.org",
                  "code": "d"
                }
              }
            }
          ]
        }
      },
      {
        "fullUrl": "http://example.org/fhir/Observation/cancer-disease-status-jenny-m",
        "resource": {
          "resourceType": "Observation",
          "id": "cancer-disease-status-jenny-m",
          "meta": {
            "profile": [
              "http://hl7.org/fhir/us/mcode/StructureDefinition/mcode-cancer-disease-status"
            ]
          },
          "text": {
            "status": "extensions",
            "div": "\u003Cdiv xmlns=\"http://www.w3.org/1999/xhtml\"\u003E\u003Ca name=\"Observation_cancer-disease-status-jenny-m\"\u003E \u003C/a\u003E\u003Cp class=\"res-header-id\"\u003E\u003Cb\u003EGenerated Narrative: Observation cancer-disease-status-jenny-m\u003C/b\u003E\u003C/p\u003E\u003Ca name=\"cancer-disease-status-jenny-m\"\u003E \u003C/a\u003E\u003Ca name=\"hccancer-disease-status-jenny-m\"\u003E \u003C/a\u003E\u003Ca name=\"cancer-disease-status-jenny-m-en-US\"\u003E \u003C/a\u003E\u003Cp\u003E\u003Cb\u003ECancer Disease Status Evidence Type Extension\u003C/b\u003E: \u003Cspan title=\"Codes:{http://snomed.info/sct 363679005}\"\u003EImaging (procedure)\u003C/span\u003E\u003C/p\u003E\u003Cp\u003E\u003Cb\u003Estatus\u003C/b\u003E: Final\u003C/p\u003E\u003Cp\u003E\u003Cb\u003Ecode\u003C/b\u003E: \u003Cspan title=\"Codes:{http://loinc.org 97509-4}\"\u003ECancer Disease Progression\u003C/span\u003E\u003C/p\u003E\u003Cp\u003E\u003Cb\u003Esubject\u003C/b\u003E: \u003Ca href=\"Patient-patientJM1.html\"\u003EMosley, Jennie Female, DoB: 1955-10-03 ( http://hl7.org/fhir/sid/us-medicare#MedicareHIC#1EG4-TE5-MK73)\u003C/a\u003E\u003C/p\u003E\u003Cp\u003E\u003Cb\u003Efocus\u003C/b\u003E: \u003Ca href=\"Condition-primary-cancer-condition-jenny-m.html\"\u003ECondition Primary malignant neoplasm of female left breast (disorder)\u003C/a\u003E\u003C/p\u003E\u003Cp\u003E\u003Cb\u003Eeffective\u003C/b\u003E: 2018-11-01\u003C/p\u003E\u003Cp\u003E\u003Cb\u003Eperformer\u003C/b\u003E: \u003Ca href=\"Practitioner-us-core-practitioner-owen-oncologist.html\"\u003EPractitioner Owen Oncologist \u003C/a\u003E\u003C/p\u003E\u003Cp\u003E\u003Cb\u003Evalue\u003C/b\u003E: \u003Cspan title=\"Codes:{http://snomed.info/sct 268910001}\"\u003EPatient's condition improved (finding)\u003C/span\u003E\u003C/p\u003E\u003C/div\u003E"
          },
          "extension": [
            {
              "url": "http://hl7.org/fhir/us/mcode/StructureDefinition/mcode-cancer-disease-status-evidence-type",
              "valueCodeableConcept": {
                "coding": [
                  {
                    "system": "http://snomed.info/sct",
                    "version": "http://snomed.info/sct/900000000000207008",
                    "code": "363679005",
                    "display": "Imaging (procedure)"
                  }
                ]
              }
            }
          ],
          "status": "final",
          "code": {
            "coding": [
              {
                "system": "http://loinc.org",
                "code": "97509-4",
                "display": "Cancer Disease Progression"
              }
            ]
          },
          "subject": {
            "reference": "Patient/patientJM1"
          },
          "focus": [
            {
              "reference": "Condition/primary-cancer-condition-jenny-m"
            }
          ],
          "effectiveDateTime": "2018-11-01",
          "performer": [
            {
              "reference": "Practitioner/us-core-practitioner-owen-oncologist"
            }
          ],
          "valueCodeableConcept": {
            "coding": [
              {
                "system": "http://snomed.info/sct",
                "version": "http://snomed.info/sct/900000000000207008",
                "code": "268910001",
                "display": "Patient's condition improved (finding)"
              }
            ]
          }
        }
      },
      {
        "fullUrl": "http://example.org/fhir/Observation/genomic-variant-jenny-m",
        "resource": {
          "resourceType": "Observation",
          "id": "genomic-variant-jenny-m",
          "meta": {
            "profile": [
              "http://hl7.org/fhir/us/mcode/StructureDefinition/mcode-genomic-variant"
            ]
          },
          "text": {
            "status": "generated",
            "div": "\u003Cdiv xmlns=\"http://www.w3.org/1999/xhtml\"\u003E\u003Ca name=\"Observation_genomic-variant-jenny-m\"\u003E \u003C/a\u003E\u003Cp class=\"res-header-id\"\u003E\u003Cb\u003EGenerated Narrative: Observation genomic-variant-jenny-m\u003C/b\u003E\u003C/p\u003E\u003Ca name=\"genomic-variant-jenny-m\"\u003E \u003C/a\u003E\u003Ca name=\"hcgenomic-variant-jenny-m\"\u003E \u003C/a\u003E\u003Ca name=\"genomic-variant-jenny-m-en-US\"\u003E \u003C/a\u003E\u003Cp\u003E\u003Cb\u003Estatus\u003C/b\u003E: Final\u003C/p\u003E\u003Cp\u003E\u003Cb\u003Ecategory\u003C/b\u003E: \u003Cspan title=\"Codes:{http://terminology.hl7.org/CodeSystem/observation-category laboratory}\"\u003ELaboratory\u003C/span\u003E\u003C/p\u003E\u003Cp\u003E\u003Cb\u003Ecode\u003C/b\u003E: \u003Cspan title=\"Codes:{http://loinc.org 69548-6}\"\u003EGenetic variant assessment\u003C/span\u003E\u003C/p\u003E\u003Cp\u003E\u003Cb\u003Esubject\u003C/b\u003E: \u003Ca href=\"Patient-patientJM1.html\"\u003EMosley, Jennie Female, DoB: 1955-10-03 ( http://hl7.org/fhir/sid/us-medicare#MedicareHIC#1EG4-TE5-MK73)\u003C/a\u003E\u003C/p\u003E\u003Cp\u003E\u003Cb\u003Eeffective\u003C/b\u003E: 2018-03-15\u003C/p\u003E\u003Cp\u003E\u003Cb\u003Eperformer\u003C/b\u003E: \u003Ca href=\"Practitioner-us-core-practitioner-owen-oncologist.html\"\u003EPractitioner Owen Oncologist \u003C/a\u003E\u003C/p\u003E\u003Cp\u003E\u003Cb\u003Evalue\u003C/b\u003E: \u003Cspan title=\"Codes:{http://loinc.org LA9633-4}\"\u003EPresent\u003C/span\u003E\u003C/p\u003E\u003Cp\u003E\u003Cb\u003Emethod\u003C/b\u003E: \u003Cspan title=\"Codes:{http://loinc.org LA26398-0}\"\u003ESequencing\u003C/span\u003E\u003C/p\u003E\u003Cblockquote\u003E\u003Cp\u003E\u003Cb\u003Ecomponent\u003C/b\u003E\u003C/p\u003E\u003Cp\u003E\u003Cb\u003Ecode\u003C/b\u003E: \u003Cspan title=\"Codes:{http://loinc.org 48018-6}\"\u003EGene studied [ID]\u003C/span\u003E\u003C/p\u003E\u003Cp\u003E\u003Cb\u003Evalue\u003C/b\u003E: \u003Cspan title=\"Codes:{http://www.genenames.org HGNC:26144}\"\u003EPALB2\u003C/span\u003E\u003C/p\u003E\u003C/blockquote\u003E\u003Cblockquote\u003E\u003Cp\u003E\u003Cb\u003Ecomponent\u003C/b\u003E\u003C/p\u003E\u003Cp\u003E\u003Cb\u003Ecode\u003C/b\u003E: \u003Cspan title=\"Codes:{http://loinc.org 81252-9}\"\u003EDiscrete genetic variant\u003C/span\u003E\u003C/p\u003E\u003Cp\u003E\u003Cb\u003Evalue\u003C/b\u003E: \u003Cspan title=\"Codes:{http://www.ncbi.nlm.nih.gov/clinvar 128144}\"\u003ENM_024675.3(PALB2):c.3549C&gt;A (p.Tyr1183Ter)\u003C/span\u003E\u003C/p\u003E\u003C/blockquote\u003E\u003Cblockquote\u003E\u003Cp\u003E\u003Cb\u003Ecomponent\u003C/b\u003E\u003C/p\u003E\u003Cp\u003E\u003Cb\u003Ecode\u003C/b\u003E: \u003Cspan title=\"Codes:{http://loinc.org 81290-9}\"\u003EGenomic DNA change (gHGVS)\u003C/span\u003E\u003C/p\u003E\u003Cp\u003E\u003Cb\u003Evalue\u003C/b\u003E: \u003Cspan title=\"Codes:{http://varnomen.hgvs.org NC_000016.10:g.23603471G&gt;T}\"\u003ENC_000016.10:g.23603471G&gt;T\u003C/span\u003E\u003C/p\u003E\u003C/blockquote\u003E\u003Cblockquote\u003E\u003Cp\u003E\u003Cb\u003Ecomponent\u003C/b\u003E\u003C/p\u003E\u003Cp\u003E\u003Cb\u003Ecode\u003C/b\u003E: \u003Cspan title=\"Codes:{http://loinc.org 48002-0}\"\u003EGenomic source class [Type]\u003C/span\u003E\u003C/p\u003E\u003Cp\u003E\u003Cb\u003Evalue\u003C/b\u003E: \u003Cspan title=\"Codes:{http://loinc.org LA6684-0}\"\u003ESomatic\u003C/span\u003E\u003C/p\u003E\u003C/blockquote\u003E\u003C/div\u003E"
          },
          "status": "final",
          "category": [
            {
              "coding": [
                {
                  "system": "http://terminology.hl7.org/CodeSystem/observation-category",
                  "code": "laboratory"
                }
              ]
            }
          ],
          "code": {
            "coding": [
              {
                "system": "http://loinc.org",
                "code": "69548-6",
                "display": "Genetic variant assessment"
              }
            ]
          },
          "subject": {
            "reference": "Patient/patientJM1"
          },
          "effectiveDateTime": "2018-03-15",
          "performer": [
            {
              "reference": "Practitioner/us-core-practitioner-owen-oncologist"
            }
          ],
          "valueCodeableConcept": {
            "coding": [
              {
                "system": "http://loinc.org",
                "code": "LA9633-4",
                "display": "Present"
              }
            ]
          },
          "method": {
            "coding": [
              {
                "system": "http://loinc.org",
                "code": "LA26398-0",
                "display": "Sequencing"
              }
            ]
          },
          "component": [
            {
              "code": {
                "coding": [
                  {
                    "system": "http://loinc.org",
                    "code": "48018-6"
                  }
                ]
              },
              "valueCodeableConcept": {
                "coding": [
                  {
                    "system": "http://www.genenames.org",
                    "code": "HGNC:26144",
                    "display": "PALB2"
                  }
                ]
              }
            },
            {
              "code": {
                "coding": [
                  {
                    "system": "http://loinc.org",
                    "code": "81252-9"
                  }
                ]
              },
              "valueCodeableConcept": {
                "coding": [
                  {
                    "system": "http://www.ncbi.nlm.nih.gov/clinvar",
                    "code": "128144",
                    "display": "NM_024675.3(PALB2):c.3549C\u003EA (p.Tyr1183Ter)"
                  }
                ]
              }
            },
            {
              "code": {
                "coding": [
                  {
                    "system": "http://loinc.org",
                    "code": "81290-9"
                  }
                ]
              },
              "valueCodeableConcept": {
                "coding": [
                  {
                    "system": "http://varnomen.hgvs.org",
                    "code": "NC_000016.10:g.23603471G\u003ET"
                  }
                ]
              }
            },
            {
              "code": {
                "coding": [
                  {
                    "system": "http://loinc.org",
                    "code": "48002-0"
                  }
                ]
              },
              "valueCodeableConcept": {
                "coding": [
                  {
                    "system": "http://loinc.org",
                    "code": "LA6684-0",
                    "display": "Somatic"
                  }
                ]
              }
            }
          ]
        }
      },
      {
        "fullUrl": "http://example.org/fhir/DiagnosticReport/genomics-report-jenny-m",
        "resource": {
          "resourceType": "DiagnosticReport",
          "id": "genomics-report-jenny-m",
          "meta": {
            "profile": [
              "http://hl7.org/fhir/us/mcode/StructureDefinition/mcode-genomics-report"
            ]
          },
          "text": {
            "status": "generated",
            "div": "\u003Cdiv xmlns=\"http://www.w3.org/1999/xhtml\"\u003E\u003Ca name=\"DiagnosticReport_genomics-report-jenny-m\"\u003E \u003C/a\u003E\u003Cp class=\"res-header-id\"\u003E\u003Cb\u003EGenerated Narrative: DiagnosticReport genomics-report-jenny-m\u003C/b\u003E\u003C/p\u003E\u003Ca name=\"genomics-report-jenny-m\"\u003E \u003C/a\u003E\u003Ca name=\"hcgenomics-report-jenny-m\"\u003E \u003C/a\u003E\u003Ca name=\"genomics-report-jenny-m-en-US\"\u003E \u003C/a\u003E\u003Ch2\u003E\u003Cspan title=\"Codes:{http://loinc.org 51969-4}\"\u003EGenetic analysis report\u003C/span\u003E (\u003Cspan title=\"Codes:{http://terminology.hl7.org/CodeSystem/v2-0074 GE}\"\u003EGenetics\u003C/span\u003E) \u003C/h2\u003E\u003Ctable class=\"grid\"\u003E\u003Ctr\u003E\u003Ctd\u003ESubject\u003C/td\u003E\u003Ctd\u003EMosley, Jennie Female, DoB: 1955-10-03 ( http://hl7.org/fhir/sid/us-medicare#MedicareHIC#1EG4-TE5-MK73)\u003C/td\u003E\u003C/tr\u003E\u003Ctr\u003E\u003Ctd\u003EWhen For\u003C/td\u003E\u003Ctd\u003E2018-03-15\u003C/td\u003E\u003C/tr\u003E\u003Ctr\u003E\u003Ctd\u003EReported\u003C/td\u003E\u003Ctd\u003E2020-03-15 00:00:01+0000\u003C/td\u003E\u003C/tr\u003E\u003Ctr\u003E\u003Ctd\u003EPerformer\u003C/td\u003E\u003Ctd\u003E \u003Ca href=\"Practitioner-us-core-practitioner-owen-oncologist.html\"\u003EPractitioner Owen Oncologist \u003C/a\u003E\u003C/td\u003E\u003C/tr\u003E\u003C/table\u003E\u003Cp\u003E\u003Cb\u003EReport Details\u003C/b\u003E\u003C/p\u003E\u003Ctable class=\"grid\"\u003E\u003Ctr\u003E\u003Ctd\u003E\u003Cb\u003ECode\u003C/b\u003E\u003C/td\u003E\u003Ctd\u003E\u003Cb\u003EValue\u003C/b\u003E\u003C/td\u003E\u003Ctd\u003E\u003Cb\u003EFlags\u003C/b\u003E\u003C/td\u003E\u003Ctd\u003E\u003Cb\u003EReported\u003C/b\u003E\u003C/td\u003E\u003C/tr\u003E\u003Ctr\u003E\u003Ctd\u003E\u003Ca href=\"Observation-genomic-variant-jenny-m.html\"\u003E\u003Cspan title=\"Codes:{http://loinc.org 69548-6}\"\u003EGenetic variant assessment\u003C/span\u003E\u003C/a\u003E\u003C/td\u003E\u003Ctd\u003E\u003Cspan title=\"Codes:{http://loinc.org LA9633-4}\"\u003EPresent\u003C/span\u003E\u003C/td\u003E\u003Ctd\u003EFinal\u003C/td\u003E\u003Ctd/\u003E\u003C/tr\u003E\u003Ctr\u003E\u003Ctd\u003E\u003Ca href=\"Observation-genomic-region-studied-jenny-m.html\"\u003E\u003Cspan title=\"Codes:{http://loinc.org 53041-0}\"\u003EDNA region of interest panel\u003C/span\u003E\u003C/a\u003E\u003C/td\u003E\u003Ctd/\u003E\u003Ctd\u003EFinal\u003C/td\u003E\u003Ctd\u003E2018-03-15 00:00:01+0000\u003C/td\u003E\u003C/tr\u003E\u003C/table\u003E\u003C/div\u003E"
          },
          "status": "final",
          "category": [
            {
              "coding": [
                {
                  "system": "http://terminology.hl7.org/CodeSystem/v2-0074",
                  "code": "GE"
                }
              ]
            }
          ],
          "code": {
            "coding": [
              {
                "system": "http://loinc.org",
                "code": "51969-4",
                "display": "Genetic analysis report"
              }
            ]
          },
          "subject": {
            "reference": "Patient/patientJM1"
          },
          "effectiveDateTime": "2018-03-15",
          "issued": "2020-03-15T00:00:01+00:00",
          "performer": [
            {
              "reference": "Practitioner/us-core-practitioner-owen-oncologist"
            }
          ],
          "specimen": [
            {
              "reference": "Specimen/human-specimen-left-breast-jenny-m"
            }
          ],
          "result": [
            {
              "reference": "Observation/genomic-variant-jenny-m"
            },
            {
              "reference": "Observation/genomic-region-studied-jenny-m"
            }
          ]
        }
      },
      {
        "fullUrl": "http://example.org/fhir/Procedure/cancer-related-surgical-procedure-jenny-m",
        "resource": {
          "resourceType": "Procedure",
          "id": "cancer-related-surgical-procedure-jenny-m",
          "meta": {
            "profile": [
              "http://hl7.org/fhir/us/mcode/StructureDefinition/mcode-cancer-related-surgical-procedure"
            ]
          },
          "text": {
            "status": "extensions",
            "div": "\u003Cdiv xmlns=\"http://www.w3.org/1999/xhtml\"\u003E\u003Ca name=\"Procedure_cancer-related-surgical-procedure-jenny-m\"\u003E \u003C/a\u003E\u003Cp class=\"res-header-id\"\u003E\u003Cb\u003EGenerated Narrative: Procedure cancer-related-surgical-procedure-jenny-m\u003C/b\u003E\u003C/p\u003E\u003Ca name=\"cancer-related-surgical-procedure-jenny-m\"\u003E \u003C/a\u003E\u003Ca name=\"hccancer-related-surgical-procedure-jenny-m\"\u003E \u003C/a\u003E\u003Ca name=\"cancer-related-surgical-procedure-jenny-m-en-US\"\u003E \u003C/a\u003E\u003Cp\u003E\u003Cb\u003EProcedure Intent Extension\u003C/b\u003E: \u003Cspan title=\"Codes:{http://snomed.info/sct 373808002}\"\u003ECurative - procedure intent (qualifier value)\u003C/span\u003E\u003C/p\u003E\u003Cp\u003E\u003Cb\u003Estatus\u003C/b\u003E: Completed\u003C/p\u003E\u003Cp\u003E\u003Cb\u003Ecode\u003C/b\u003E: \u003Cspan title=\"Codes:{http://snomed.info/sct 64368001}\"\u003EExcision of part of breast (procedure)\u003C/span\u003E\u003C/p\u003E\u003Cp\u003E\u003Cb\u003Esubject\u003C/b\u003E: \u003Ca href=\"Patient-patientJM1.html\"\u003EMosley, Jennie Female, DoB: 1955-10-03 ( http://hl7.org/fhir/sid/us-medicare#MedicareHIC#1EG4-TE5-MK73)\u003C/a\u003E\u003C/p\u003E\u003Cp\u003E\u003Cb\u003Eperformed\u003C/b\u003E: 2018-04-01\u003C/p\u003E\u003Cp\u003E\u003Cb\u003Easserter\u003C/b\u003E: \u003Ca href=\"Practitioner-us-core-practitioner-owen-oncologist.html\"\u003EPractitioner Owen Oncologist \u003C/a\u003E\u003C/p\u003E\u003Cp\u003E\u003Cb\u003EreasonReference\u003C/b\u003E: \u003Ca href=\"Condition-primary-cancer-condition-jenny-m.html\"\u003ECondition Primary malignant neoplasm of female left breast (disorder)\u003C/a\u003E\u003C/p\u003E\u003Cp\u003E\u003Cb\u003EbodySite\u003C/b\u003E: \u003Cspan title=\"Codes:{http://snomed.info/sct 80248007}\"\u003ELeft breast structure (body structure)\u003C/span\u003E\u003C/p\u003E\u003C/div\u003E"
          },
          "extension": [
            {
              "url": "http://hl7.org/fhir/us/mcode/StructureDefinition/mcode-procedure-intent",
              "valueCodeableConcept": {
                "coding": [
                  {
                    "system": "http://snomed.info/sct",
                    "version": "http://snomed.info/sct/900000000000207008",
                    "code": "373808002",
                    "display": "Curative - procedure intent (qualifier value)"
                  }
                ]
              }
            }
          ],
          "status": "completed",
          "code": {
            "coding": [
              {
                "system": "http://snomed.info/sct",
                "version": "http://snomed.info/sct/900000000000207008",
                "code": "64368001",
                "display": "Excision of part of breast (procedure)"
              }
            ]
          },
          "subject": {
            "reference": "Patient/patientJM1"
          },
          "performedDateTime": "2018-04-01",
          "asserter": {
            "reference": "Practitioner/us-core-practitioner-owen-oncologist"
          },
          "reasonReference": [
            {
              "reference": "Condition/primary-cancer-condition-jenny-m"
            }
          ],
          "bodySite": [
            {
              "coding": [
                {
                  "system": "http://snomed.info/sct",
                  "version": "http://snomed.info/sct/900000000000207008",
                  "code": "80248007",
                  "display": "Left breast structure (body structure)"
                }
              ]
            }
          ]
        }
      },
      {
        "fullUrl": "http://example.org/fhir/Observation/cancer-related-comorbidities-jenny-m",
        "resource": {
          "resourceType": "Observation",
          "id": "cancer-related-comorbidities-jenny-m",
          "meta": {
            "profile": [
              "http://hl7.org/fhir/us/mcode/StructureDefinition/mcode-comorbidities"
            ]
          },
          "text": {
            "status": "extensions",
            "div": "\u003Cdiv xmlns=\"http://www.w3.org/1999/xhtml\"\u003E\u003Ca name=\"Observation_cancer-related-comorbidities-jenny-m\"\u003E \u003C/a\u003E\u003Cp class=\"res-header-id\"\u003E\u003Cb\u003EGenerated Narrative: Observation cancer-related-comorbidities-jenny-m\u003C/b\u003E\u003C/p\u003E\u003Ca name=\"cancer-related-comorbidities-jenny-m\"\u003E \u003C/a\u003E\u003Ca name=\"hccancer-related-comorbidities-jenny-m\"\u003E \u003C/a\u003E\u003Ca name=\"cancer-related-comorbidities-jenny-m-en-US\"\u003E \u003C/a\u003E\u003Cp\u003E\u003Cb\u003ERelated Condition Extension\u003C/b\u003E: \u003Ca href=\"Condition-us-core-condition-depression-jenny-m.html\"\u003ECondition Depressive disorder (disorder)\u003C/a\u003E\u003C/p\u003E\u003Cp\u003E\u003Cb\u003ERelated Condition Extension\u003C/b\u003E: \u003Ca href=\"Condition-us-core-condition-anxiety-jenny-m.html\"\u003ECondition Anxiety (finding)\u003C/a\u003E\u003C/p\u003E\u003Cp\u003E\u003Cb\u003ERelated Condition Extension\u003C/b\u003E: \u003Ca href=\"Condition-us-core-condition-hypertension-jenny-m.html\"\u003ECondition Benign hypertensive heart disease without congestive heart failure (disorder)\u003C/a\u003E\u003C/p\u003E\u003Cp\u003E\u003Cb\u003ERelated Condition Absent Extension\u003C/b\u003E: \u003Cspan title=\"Codes:{http://snomed.info/sct 414916001}\"\u003EObesity (disorder)\u003C/span\u003E\u003C/p\u003E\u003Cp\u003E\u003Cb\u003ERelated Condition Absent Extension\u003C/b\u003E: \u003Cspan title=\"Codes:{http://snomed.info/sct 19829001}\"\u003EDisorder of lung (disorder)\u003C/span\u003E\u003C/p\u003E\u003Cp\u003E\u003Cb\u003Estatus\u003C/b\u003E: Final\u003C/p\u003E\u003Cp\u003E\u003Cb\u003Ecategory\u003C/b\u003E: \u003Cspan title=\"Codes:{http://terminology.hl7.org/CodeSystem/observation-category social-history}\"\u003ESocial History\u003C/span\u003E\u003C/p\u003E\u003Cp\u003E\u003Cb\u003Ecode\u003C/b\u003E: \u003Cspan title=\"Codes:{http://snomed.info/sct 398192003}\"\u003ECo-morbid conditions (finding)\u003C/span\u003E\u003C/p\u003E\u003Cp\u003E\u003Cb\u003Esubject\u003C/b\u003E: \u003Ca href=\"Patient-patientJM1.html\"\u003EMosley, Jennie Female, DoB: 1955-10-03 ( http://hl7.org/fhir/sid/us-medicare#MedicareHIC#1EG4-TE5-MK73)\u003C/a\u003E\u003C/p\u003E\u003Cp\u003E\u003Cb\u003Efocus\u003C/b\u003E: \u003Ca href=\"Condition-primary-cancer-condition-jenny-m.html\"\u003ECondition Primary malignant neoplasm of female left breast (disorder)\u003C/a\u003E\u003C/p\u003E\u003Cp\u003E\u003Cb\u003Eeffective\u003C/b\u003E: 2018-03-16\u003C/p\u003E\u003Cp\u003E\u003Cb\u003Eperformer\u003C/b\u003E: \u003Ca href=\"Practitioner-us-core-practitioner-owen-oncologist.html\"\u003EPractitioner Owen Oncologist \u003C/a\u003E\u003C/p\u003E\u003C/div\u003E"
          },
          "extension": [
            {
              "url": "http://hl7.org/fhir/us/mcode/StructureDefinition/mcode-related-condition",
              "valueReference": {
                "reference": "Condition/us-core-condition-depression-jenny-m"
              }
            },
            {
              "url": "http://hl7.org/fhir/us/mcode/StructureDefinition/mcode-related-condition",
              "valueReference": {
                "reference": "Condition/us-core-condition-anxiety-jenny-m"
              }
            },
            {
              "url": "http://hl7.org/fhir/us/mcode/StructureDefinition/mcode-related-condition",
              "valueReference": {
                "reference": "Condition/us-core-condition-hypertension-jenny-m"
              }
            },
            {
              "url": "http://hl7.org/fhir/us/mcode/StructureDefinition/mcode-related-condition-absent",
              "valueCodeableConcept": {
                "coding": [
                  {
                    "system": "http://snomed.info/sct",
                    "version": "http://snomed.info/sct/900000000000207008",
                    "code": "414916001",
                    "display": "Obesity (disorder)"
                  }
                ]
              }
            },
            {
              "url": "http://hl7.org/fhir/us/mcode/StructureDefinition/mcode-related-condition-absent",
              "valueCodeableConcept": {
                "coding": [
                  {
                    "system": "http://snomed.info/sct",
                    "version": "http://snomed.info/sct/900000000000207008",
                    "code": "19829001",
                    "display": "Disorder of lung (disorder)"
                  }
                ]
              }
            }
          ],
          "status": "final",
          "category": [
            {
              "coding": [
                {
                  "system": "http://terminology.hl7.org/CodeSystem/observation-category",
                  "code": "social-history",
                  "display": "Social History"
                }
              ]
            }
          ],
          "code": {
            "coding": [
              {
                "system": "http://snomed.info/sct",
                "code": "398192003"
              }
            ]
          },
          "subject": {
            "reference": "Patient/patientJM1"
          },
          "focus": [
            {
              "reference": "Condition/primary-cancer-condition-jenny-m"
            }
          ],
          "effectiveDateTime": "2018-03-16",
          "performer": [
            {
              "reference": "Practitioner/us-core-practitioner-owen-oncologist"
            }
          ]
        }
      },
      {
        "fullUrl": "http://example.org/fhir/Procedure/radiotherapy-treatment-summary-chest-wall-jenny-m",
        "resource": {
          "resourceType": "Procedure",
          "id": "radiotherapy-treatment-summary-chest-wall-jenny-m",
          "meta": {
            "profile": [
              "http://hl7.org/fhir/us/mcode/StructureDefinition/mcode-radiotherapy-course-summary"
            ]
          },
          "text": {
            "status": "extensions",
            "div": "\u003Cdiv xmlns=\"http://www.w3.org/1999/xhtml\"\u003E\u003Ca name=\"Procedure_radiotherapy-treatment-summary-chest-wall-jenny-m\"\u003E \u003C/a\u003E\u003Cp class=\"res-header-id\"\u003E\u003Cb\u003EGenerated Narrative: Procedure radiotherapy-treatment-summary-chest-wall-jenny-m\u003C/b\u003E\u003C/p\u003E\u003Ca name=\"radiotherapy-treatment-summary-chest-wall-jenny-m\"\u003E \u003C/a\u003E\u003Ca name=\"hcradiotherapy-treatment-summary-chest-wall-jenny-m\"\u003E \u003C/a\u003E\u003Ca name=\"radiotherapy-treatment-summary-chest-wall-jenny-m-en-US\"\u003E \u003C/a\u003E\u003Cp\u003E\u003Cb\u003ERadiotherapy Number of Sessions Extension\u003C/b\u003E: 31\u003C/p\u003E\u003Cp\u003E\u003Cb\u003EProcedure Intent Extension\u003C/b\u003E: \u003Cspan title=\"Codes:{http://snomed.info/sct 373808002}\"\u003ECurative - procedure intent\u003C/span\u003E\u003C/p\u003E\u003Cblockquote\u003E\u003Cp\u003E\u003Cb\u003ERadiotherapy Modality And Technique Extension\u003C/b\u003E\u003C/p\u003E\u003Cul\u003E\u003Cli\u003Ehttp://hl7.org/fhir/us/mcode/StructureDefinition/mcode-radiotherapy-modality: \u003Cspan title=\"Codes:{http://snomed.info/sct 1156506007}\"\u003EExternal beam radiation therapy using photons (procedure)\u003C/span\u003E\u003C/li\u003E\u003Cli\u003Ehttp://hl7.org/fhir/us/mcode/StructureDefinition/mcode-radiotherapy-technique: \u003Cspan title=\"Codes:{http://snomed.info/sct 1156530009}\"\u003EVolumetric Modulated Arc Therapy (procedure)\u003C/span\u003E\u003C/li\u003E\u003C/ul\u003E\u003C/blockquote\u003E\u003Cblockquote\u003E\u003Cp\u003E\u003Cb\u003ERadiotherapy Modality And Technique Extension\u003C/b\u003E\u003C/p\u003E\u003Cul\u003E\u003Cli\u003Ehttp://hl7.org/fhir/us/mcode/StructureDefinition/mcode-radiotherapy-modality: \u003Cspan title=\"Codes:{http://snomed.info/sct 45643008}\"\u003ETeleradiotherapy using electrons\u003C/span\u003E\u003C/li\u003E\u003Cli\u003Ehttp://hl7.org/fhir/us/mcode/StructureDefinition/mcode-radiotherapy-technique: \u003Cspan title=\"Codes:{http://snomed.info/sct 1162782007}\"\u003EThree dimensional external beam radiation therapy (procedure)\u003C/span\u003E\u003C/li\u003E\u003C/ul\u003E\u003C/blockquote\u003E\u003Cblockquote\u003E\u003Cp\u003E\u003Cb\u003ERadiotherapy Dose Delivered To Volume Extension\u003C/b\u003E\u003C/p\u003E\u003Cul\u003E\u003Cli\u003Evolume: \u003Ca href=\"BodyStructure-jenny-m-chest-wall-treatment-volume.html\"\u003EBodyStructure: identifier = 1.2.246.352…1 (use: usual, ); location = Chest wall structure (body structure); locationQualifier = Entire (qualifier value); description = Chest Wall\u003C/a\u003E\u003C/li\u003E\u003Cli\u003EtotalDoseDelivered: 6000 cGy\u003Cspan style=\"background: LightGoldenRodYellow\"\u003E (Details: UCUM  codecGy = 'cGy')\u003C/span\u003E\u003C/li\u003E\u003Cli\u003EfractionsDelivered: 30\u003C/li\u003E\u003C/ul\u003E\u003C/blockquote\u003E\u003Cblockquote\u003E\u003Cp\u003E\u003Cb\u003ERadiotherapy Dose Delivered To Volume Extension\u003C/b\u003E\u003C/p\u003E\u003Cul\u003E\u003Cli\u003Evolume: \u003Ca href=\"BodyStructure-jenny-m-chest-wall-lymph-nodes-treatment-volume.html\"\u003EBodyStructure: identifier = 1.2.246.352…2 (use: usual, ); location = Mediastinal lymph node structure (body structure); locationQualifier = Right and left (qualifier value); description = Chest Wall Lymph Nodes\u003C/a\u003E\u003C/li\u003E\u003Cli\u003EtotalDoseDelivered: 5000 cGy\u003Cspan style=\"background: LightGoldenRodYellow\"\u003E (Details: UCUM  codecGy = 'cGy')\u003C/span\u003E\u003C/li\u003E\u003Cli\u003EfractionsDelivered: 25\u003C/li\u003E\u003C/ul\u003E\u003C/blockquote\u003E\u003Cp\u003E\u003Cb\u003Estatus\u003C/b\u003E: Completed\u003C/p\u003E\u003Cp\u003E\u003Cb\u003Ecode\u003C/b\u003E: \u003Cspan title=\"Codes:{http://snomed.info/sct 1217123003}\"\u003ERadiotherapy course of treatment\u003C/span\u003E\u003C/p\u003E\u003Cp\u003E\u003Cb\u003Esubject\u003C/b\u003E: \u003Ca href=\"Patient-patientJM1.html\"\u003EMosley, Jennie Female, DoB: 1955-10-03 ( http://hl7.org/fhir/sid/us-medicare#MedicareHIC#1EG4-TE5-MK73)\u003C/a\u003E\u003C/p\u003E\u003Cp\u003E\u003Cb\u003Eperformed\u003C/b\u003E: 2018-08-15 --&gt; 2018-10-25\u003C/p\u003E\u003Cp\u003E\u003Cb\u003Easserter\u003C/b\u003E: \u003Ca href=\"Practitioner-us-core-practitioner-kyle-anydoc.html\"\u003EPractitioner Kyle Anydoc \u003C/a\u003E\u003C/p\u003E\u003Cp\u003E\u003Cb\u003EreasonCode\u003C/b\u003E: \u003Cspan title=\"Codes:{http://hl7.org/fhir/sid/icd-10-cm C50.811}\"\u003EMalignant neoplasm of overlapping sites of right female breast\u003C/span\u003E\u003C/p\u003E\u003Cp\u003E\u003Cb\u003EbodySite\u003C/b\u003E: \u003Cspan title=\"Codes:{http://snomed.info/sct 78904004}\"\u003EChest Wall Structure (body structure)\u003C/span\u003E\u003C/p\u003E\u003C/div\u003E"
          },
          "extension": [
            {
              "url": "http://hl7.org/fhir/us/mcode/StructureDefinition/mcode-radiotherapy-sessions",
              "valueUnsignedInt": 31
            },
            {
              "url": "http://hl7.org/fhir/us/mcode/StructureDefinition/mcode-procedure-intent",
              "valueCodeableConcept": {
                "coding": [
                  {
                    "system": "http://snomed.info/sct",
                    "version": "http://snomed.info/sct/900000000000207008",
                    "code": "373808002",
                    "display": "Curative - procedure intent"
                  }
                ]
              }
            },
            {
              "extension": [
                {
                  "url": "http://hl7.org/fhir/us/mcode/StructureDefinition/mcode-radiotherapy-modality",
                  "valueCodeableConcept": {
                    "coding": [
                      {
                        "system": "http://snomed.info/sct",
                        "version": "http://snomed.info/sct/900000000000207008",
                        "code": "1156506007",
                        "display": "External beam radiation therapy using photons (procedure)"
                      }
                    ]
                  }
                },
                {
                  "url": "http://hl7.org/fhir/us/mcode/StructureDefinition/mcode-radiotherapy-technique",
                  "valueCodeableConcept": {
                    "coding": [
                      {
                        "system": "http://snomed.info/sct",
                        "version": "http://snomed.info/sct/900000000000207008",
                        "code": "1156530009",
                        "display": "Volumetric Modulated Arc Therapy (procedure)"
                      }
                    ]
                  }
                }
              ],
              "url": "http://hl7.org/fhir/us/mcode/StructureDefinition/mcode-radiotherapy-modality-and-technique"
            },
            {
              "extension": [
                {
                  "url": "http://hl7.org/fhir/us/mcode/StructureDefinition/mcode-radiotherapy-modality",
                  "valueCodeableConcept": {
                    "coding": [
                      {
                        "system": "http://snomed.info/sct",
                        "version": "http://snomed.info/sct/900000000000207008",
                        "code": "45643008",
                        "display": "Teleradiotherapy using electrons"
                      }
                    ]
                  }
                },
                {
                  "url": "http://hl7.org/fhir/us/mcode/StructureDefinition/mcode-radiotherapy-technique",
                  "valueCodeableConcept": {
                    "coding": [
                      {
                        "system": "http://snomed.info/sct",
                        "version": "http://snomed.info/sct/900000000000207008",
                        "code": "1162782007",
                        "display": "Three dimensional external beam radiation therapy (procedure)"
                      }
                    ]
                  }
                }
              ],
              "url": "http://hl7.org/fhir/us/mcode/StructureDefinition/mcode-radiotherapy-modality-and-technique"
            },
            {
              "extension": [
                {
                  "url": "volume",
                  "valueReference": {
                    "reference": "BodyStructure/jenny-m-chest-wall-treatment-volume"
                  }
                },
                {
                  "url": "totalDoseDelivered",
                  "valueQuantity": {
                    "value": 6000,
                    "system": "http://unitsofmeasure.org",
                    "code": "cGy"
                  }
                },
                {
                  "url": "fractionsDelivered",
                  "valueUnsignedInt": 30
                }
              ],
              "url": "http://hl7.org/fhir/us/mcode/StructureDefinition/mcode-radiotherapy-dose-delivered-to-volume"
            },
            {
              "extension": [
                {
                  "url": "volume",
                  "valueReference": {
                    "reference": "BodyStructure/jenny-m-chest-wall-lymph-nodes-treatment-volume"
                  }
                },
                {
                  "url": "totalDoseDelivered",
                  "valueQuantity": {
                    "value": 5000,
                    "system": "http://unitsofmeasure.org",
                    "code": "cGy"
                  }
                },
                {
                  "url": "fractionsDelivered",
                  "valueUnsignedInt": 25
                }
              ],
              "url": "http://hl7.org/fhir/us/mcode/StructureDefinition/mcode-radiotherapy-dose-delivered-to-volume"
            }
          ],
          "status": "completed",
          "code": {
            "coding": [
              {
                "system": "http://snomed.info/sct",
                "version": "http://snomed.info/sct/900000000000207008",
                "code": "1217123003"
              }
            ]
          },
          "subject": {
            "reference": "Patient/patientJM1"
          },
          "performedPeriod": {
            "start": "2018-08-15",
            "end": "2018-10-25"
          },
          "asserter": {
            "reference": "Practitioner/us-core-practitioner-kyle-anydoc"
          },
          "reasonCode": [
            {
              "coding": [
                {
                  "system": "http://hl7.org/fhir/sid/icd-10-cm",
                  "code": "C50.811",
                  "display": "Malignant neoplasm of overlapping sites of right female breast"
                }
              ]
            }
          ],
          "bodySite": [
            {
              "coding": [
                {
                  "system": "http://snomed.info/sct",
                  "version": "http://snomed.info/sct/900000000000207008",
                  "code": "78904004",
                  "display": "Chest Wall Structure (body structure)"
                }
              ]
            }
          ]
        }
      },
      {
        "fullUrl": "http://example.org/fhir/Observation/tnm-clinical-stage-group-jenny-m",
        "resource": {
          "resourceType": "Observation",
          "id": "tnm-clinical-stage-group-jenny-m",
          "meta": {
            "profile": [
              "http://hl7.org/fhir/us/mcode/StructureDefinition/mcode-tnm-stage-group"
            ]
          },
          "text": {
            "status": "generated",
            "div": "\u003Cdiv xmlns=\"http://www.w3.org/1999/xhtml\"\u003E\u003Ca name=\"Observation_tnm-clinical-stage-group-jenny-m\"\u003E \u003C/a\u003E\u003Cp class=\"res-header-id\"\u003E\u003Cb\u003EGenerated Narrative: Observation tnm-clinical-stage-group-jenny-m\u003C/b\u003E\u003C/p\u003E\u003Ca name=\"tnm-clinical-stage-group-jenny-m\"\u003E \u003C/a\u003E\u003Ca name=\"hctnm-clinical-stage-group-jenny-m\"\u003E \u003C/a\u003E\u003Ca name=\"tnm-clinical-stage-group-jenny-m-en-US\"\u003E \u003C/a\u003E\u003Cp\u003E\u003Cb\u003Estatus\u003C/b\u003E: Final\u003C/p\u003E\u003Cp\u003E\u003Cb\u003Ecategory\u003C/b\u003E: \u003Cspan title=\"Codes:{http://terminology.hl7.org/CodeSystem/observation-category imaging}\"\u003EImaging\u003C/span\u003E\u003C/p\u003E\u003Cp\u003E\u003Cb\u003Ecode\u003C/b\u003E: \u003Cspan title=\"Codes:{http://snomed.info/sct 399537006}\"\u003EClinical TNM stage grouping\u003C/span\u003E\u003C/p\u003E\u003Cp\u003E\u003Cb\u003Esubject\u003C/b\u003E: \u003Ca href=\"Patient-patientJM1.html\"\u003EMosley, Jennie Female, DoB: 1955-10-03 ( http://hl7.org/fhir/sid/us-medicare#MedicareHIC#1EG4-TE5-MK73)\u003C/a\u003E\u003C/p\u003E\u003Cp\u003E\u003Cb\u003Efocus\u003C/b\u003E: \u003Ca href=\"Condition-primary-cancer-condition-jenny-m.html\"\u003ECondition Primary malignant neoplasm of female left breast (disorder)\u003C/a\u003E\u003C/p\u003E\u003Cp\u003E\u003Cb\u003Eeffective\u003C/b\u003E: 2018-03-16\u003C/p\u003E\u003Cp\u003E\u003Cb\u003Eperformer\u003C/b\u003E: \u003Ca href=\"Practitioner-us-core-practitioner-owen-oncologist.html\"\u003EPractitioner Owen Oncologist \u003C/a\u003E\u003C/p\u003E\u003Cp\u003E\u003Cb\u003Evalue\u003C/b\u003E: \u003Cspan title=\"Codes:{http://snomed.info/sct 1222769001}\"\u003EAmerican Joint Committee on Cancer stage IIB (qualifier value)\u003C/span\u003E\u003C/p\u003E\u003Cp\u003E\u003Cb\u003Emethod\u003C/b\u003E: \u003Cspan title=\"Codes:{http://snomed.info/sct 897275008}\"\u003EAmerican Joint Commission on Cancer, Cancer Staging Manual, 8th edition neoplasm staging system (tumor staging)\u003C/span\u003E\u003C/p\u003E\u003Cp\u003E\u003Cb\u003EhasMember\u003C/b\u003E: \u003C/p\u003E\u003Cul\u003E\u003Cli\u003E\u003Ca href=\"Observation-tnm-pathologic-primary-tumor-category-jenny-m.html\"\u003EObservation pT category\u003C/a\u003E\u003C/li\u003E\u003Cli\u003E\u003Ca href=\"Observation-tnm-pathologic-regional-nodes-category-jenny-m.html\"\u003EObservation pN category\u003C/a\u003E\u003C/li\u003E\u003Cli\u003E\u003Ca href=\"Observation-tnm-pathologic-distant-metastases-category-jenny-m.html\"\u003EObservation pM category\u003C/a\u003E\u003C/li\u003E\u003C/ul\u003E\u003C/div\u003E"
          },
          "status": "final",
          "category": [
            {
              "coding": [
                {
                  "system": "http://terminology.hl7.org/CodeSystem/observation-category",
                  "code": "imaging",
                  "display": "Imaging"
                }
              ]
            }
          ],
          "code": {
            "coding": [
              {
                "system": "http://snomed.info/sct",
                "version": "http://snomed.info/sct/900000000000207008",
                "code": "399537006",
                "display": "Clinical TNM stage grouping"
              }
            ]
          },
          "subject": {
            "reference": "Patient/patientJM1"
          },
          "focus": [
            {
              "reference": "Condition/primary-cancer-condition-jenny-m"
            }
          ],
          "effectiveDateTime": "2018-03-16",
          "performer": [
            {
              "reference": "Practitioner/us-core-practitioner-owen-oncologist"
            }
          ],
          "valueCodeableConcept": {
            "coding": [
              {
                "system": "http://snomed.info/sct",
                "version": "http://snomed.info/sct/900000000000207008",
                "code": "1222769001",
                "display": "American Joint Committee on Cancer stage IIB (qualifier value)"
              }
            ]
          },
          "method": {
            "coding": [
              {
                "system": "http://snomed.info/sct",
                "version": "http://snomed.info/sct/900000000000207008",
                "code": "897275008",
                "display": "American Joint Commission on Cancer, Cancer Staging Manual, 8th edition neoplasm staging system (tumor staging)"
              }
            ]
          },
          "hasMember": [
            {
              "reference": "Observation/tnm-pathologic-primary-tumor-category-jenny-m"
            },
            {
              "reference": "Observation/tnm-pathologic-regional-nodes-category-jenny-m"
            },
            {
              "reference": "Observation/tnm-pathologic-distant-metastases-category-jenny-m"
            }
          ]
        }
      },
      {
        "fullUrl": "http://example.org/fhir/Observation/tnm-clinical-primary-tumor-category-jenny-m",
        "resource": {
          "resourceType": "Observation",
          "id": "tnm-clinical-primary-tumor-category-jenny-m",
          "meta": {
            "profile": [
              "http://hl7.org/fhir/us/mcode/StructureDefinition/mcode-tnm-primary-tumor-category"
            ]
          },
          "text": {
            "status": "generated",
            "div": "\u003Cdiv xmlns=\"http://www.w3.org/1999/xhtml\"\u003E\u003Ca name=\"Observation_tnm-clinical-primary-tumor-category-jenny-m\"\u003E \u003C/a\u003E\u003Cp class=\"res-header-id\"\u003E\u003Cb\u003EGenerated Narrative: Observation tnm-clinical-primary-tumor-category-jenny-m\u003C/b\u003E\u003C/p\u003E\u003Ca name=\"tnm-clinical-primary-tumor-category-jenny-m\"\u003E \u003C/a\u003E\u003Ca name=\"hctnm-clinical-primary-tumor-category-jenny-m\"\u003E \u003C/a\u003E\u003Ca name=\"tnm-clinical-primary-tumor-category-jenny-m-en-US\"\u003E \u003C/a\u003E\u003Cp\u003E\u003Cb\u003Estatus\u003C/b\u003E: Final\u003C/p\u003E\u003Cp\u003E\u003Cb\u003Ecategory\u003C/b\u003E: \u003Cspan title=\"Codes:{http://terminology.hl7.org/CodeSystem/observation-category imaging}\"\u003EImaging\u003C/span\u003E\u003C/p\u003E\u003Cp\u003E\u003Cb\u003Ecode\u003C/b\u003E: \u003Cspan title=\"Codes:{http://snomed.info/sct 399504009}\"\u003EcT category\u003C/span\u003E\u003C/p\u003E\u003Cp\u003E\u003Cb\u003Esubject\u003C/b\u003E: \u003Ca href=\"Patient-patientJM1.html\"\u003EMosley, Jennie Female, DoB: 1955-10-03 ( http://hl7.org/fhir/sid/us-medicare#MedicareHIC#1EG4-TE5-MK73)\u003C/a\u003E\u003C/p\u003E\u003Cp\u003E\u003Cb\u003Eeffective\u003C/b\u003E: 2018-03-16\u003C/p\u003E\u003Cp\u003E\u003Cb\u003Eperformer\u003C/b\u003E: \u003Ca href=\"Practitioner-us-core-practitioner-owen-oncologist.html\"\u003EPractitioner Owen Oncologist \u003C/a\u003E\u003C/p\u003E\u003Cp\u003E\u003Cb\u003Evalue\u003C/b\u003E: \u003Cspan title=\"Codes:{http://snomed.info/sct 1228938002}\"\u003EAmerican Joint Committee on Cancer cT3 (qualifier value)\u003C/span\u003E\u003C/p\u003E\u003Cp\u003E\u003Cb\u003Emethod\u003C/b\u003E: \u003Cspan title=\"Codes:{http://snomed.info/sct 897275008}\"\u003EAmerican Joint Commission on Cancer, Cancer Staging Manual, 8th edition neoplasm staging system (tumor staging)\u003C/span\u003E\u003C/p\u003E\u003C/div\u003E"
          },
          "status": "final",
          "category": [
            {
              "coding": [
                {
                  "system": "http://terminology.hl7.org/CodeSystem/observation-category",
                  "code": "imaging",
                  "display": "Imaging"
                }
              ]
            }
          ],
          "code": {
            "coding": [
              {
                "system": "http://snomed.info/sct",
                "version": "http://snomed.info/sct/900000000000207008",
                "code": "399504009",
                "display": "cT category"
              }
            ]
          },
          "subject": {
            "reference": "Patient/patientJM1"
          },
          "effectiveDateTime": "2018-03-16",
          "performer": [
            {
              "reference": "Practitioner/us-core-practitioner-owen-oncologist"
            }
          ],
          "valueCodeableConcept": {
            "coding": [
              {
                "system": "http://snomed.info/sct",
                "version": "http://snomed.info/sct/900000000000207008",
                "code": "1228938002",
                "display": "American Joint Committee on Cancer cT3 (qualifier value)"
              }
            ]
          },
          "method": {
            "coding": [
              {
                "system": "http://snomed.info/sct",
                "version": "http://snomed.info/sct/900000000000207008",
                "code": "897275008",
                "display": "American Joint Commission on Cancer, Cancer Staging Manual, 8th edition neoplasm staging system (tumor staging)"
              }
            ]
          }
        }
      },
      {
        "fullUrl": "http://example.org/fhir/Observation/tnm-clinical-regional-nodes-category-jenny-m",
        "resource": {
          "resourceType": "Observation",
          "id": "tnm-clinical-regional-nodes-category-jenny-m",
          "meta": {
            "profile": [
              "http://hl7.org/fhir/us/mcode/StructureDefinition/mcode-tnm-regional-nodes-category"
            ]
          },
          "text": {
            "status": "generated",
            "div": "\u003Cdiv xmlns=\"http://www.w3.org/1999/xhtml\"\u003E\u003Ca name=\"Observation_tnm-clinical-regional-nodes-category-jenny-m\"\u003E \u003C/a\u003E\u003Cp class=\"res-header-id\"\u003E\u003Cb\u003EGenerated Narrative: Observation tnm-clinical-regional-nodes-category-jenny-m\u003C/b\u003E\u003C/p\u003E\u003Ca name=\"tnm-clinical-regional-nodes-category-jenny-m\"\u003E \u003C/a\u003E\u003Ca name=\"hctnm-clinical-regional-nodes-category-jenny-m\"\u003E \u003C/a\u003E\u003Ca name=\"tnm-clinical-regional-nodes-category-jenny-m-en-US\"\u003E \u003C/a\u003E\u003Cp\u003E\u003Cb\u003Estatus\u003C/b\u003E: Final\u003C/p\u003E\u003Cp\u003E\u003Cb\u003Ecategory\u003C/b\u003E: \u003Cspan title=\"Codes:{http://terminology.hl7.org/CodeSystem/observation-category imaging}\"\u003EImaging\u003C/span\u003E\u003C/p\u003E\u003Cp\u003E\u003Cb\u003Ecode\u003C/b\u003E: \u003Cspan title=\"Codes:{http://snomed.info/sct 399534004}\"\u003EcN category\u003C/span\u003E\u003C/p\u003E\u003Cp\u003E\u003Cb\u003Esubject\u003C/b\u003E: \u003Ca href=\"Patient-patientJM1.html\"\u003EMosley, Jennie Female, DoB: 1955-10-03 ( http://hl7.org/fhir/sid/us-medicare#MedicareHIC#1EG4-TE5-MK73)\u003C/a\u003E\u003C/p\u003E\u003Cp\u003E\u003Cb\u003Eeffective\u003C/b\u003E: 2018-03-16\u003C/p\u003E\u003Cp\u003E\u003Cb\u003Eperformer\u003C/b\u003E: \u003Ca href=\"Practitioner-us-core-practitioner-owen-oncologist.html\"\u003EPractitioner Owen Oncologist \u003C/a\u003E\u003C/p\u003E\u003Cp\u003E\u003Cb\u003Evalue\u003C/b\u003E: \u003Cspan title=\"Codes:{http://snomed.info/sct 1229967007}\"\u003EAmerican Joint Committee on Cancer cN0 (qualifier value)\u003C/span\u003E\u003C/p\u003E\u003Cp\u003E\u003Cb\u003Emethod\u003C/b\u003E: \u003Cspan title=\"Codes:{http://snomed.info/sct 897275008}\"\u003EAmerican Joint Commission on Cancer, Cancer Staging Manual, 8th edition neoplasm staging system (tumor staging)\u003C/span\u003E\u003C/p\u003E\u003C/div\u003E"
          },
          "status": "final",
          "category": [
            {
              "coding": [
                {
                  "system": "http://terminology.hl7.org/CodeSystem/observation-category",
                  "code": "imaging",
                  "display": "Imaging"
                }
              ]
            }
          ],
          "code": {
            "coding": [
              {
                "system": "http://snomed.info/sct",
                "version": "http://snomed.info/sct/900000000000207008",
                "code": "399534004",
                "display": "cN category"
              }
            ]
          },
          "subject": {
            "reference": "Patient/patientJM1"
          },
          "effectiveDateTime": "2018-03-16",
          "performer": [
            {
              "reference": "Practitioner/us-core-practitioner-owen-oncologist"
            }
          ],
          "valueCodeableConcept": {
            "coding": [
              {
                "system": "http://snomed.info/sct",
                "version": "http://snomed.info/sct/900000000000207008",
                "code": "1229967007",
                "display": "American Joint Committee on Cancer cN0 (qualifier value)"
              }
            ]
          },
          "method": {
            "coding": [
              {
                "system": "http://snomed.info/sct",
                "version": "http://snomed.info/sct/900000000000207008",
                "code": "897275008",
                "display": "American Joint Commission on Cancer, Cancer Staging Manual, 8th edition neoplasm staging system (tumor staging)"
              }
            ]
          }
        }
      },
      {
        "fullUrl": "http://example.org/fhir/Observation/tnm-clinical-distant-metastases-category-jenny-m",
        "resource": {
          "resourceType": "Observation",
          "id": "tnm-clinical-distant-metastases-category-jenny-m",
          "meta": {
            "profile": [
              "http://hl7.org/fhir/us/mcode/StructureDefinition/mcode-tnm-distant-metastases-category"
            ]
          },
          "text": {
            "status": "generated",
            "div": "\u003Cdiv xmlns=\"http://www.w3.org/1999/xhtml\"\u003E\u003Ca name=\"Observation_tnm-clinical-distant-metastases-category-jenny-m\"\u003E \u003C/a\u003E\u003Cp class=\"res-header-id\"\u003E\u003Cb\u003EGenerated Narrative: Observation tnm-clinical-distant-metastases-category-jenny-m\u003C/b\u003E\u003C/p\u003E\u003Ca name=\"tnm-clinical-distant-metastases-category-jenny-m\"\u003E \u003C/a\u003E\u003Ca name=\"hctnm-clinical-distant-metastases-category-jenny-m\"\u003E \u003C/a\u003E\u003Ca name=\"tnm-clinical-distant-metastases-category-jenny-m-en-US\"\u003E \u003C/a\u003E\u003Cp\u003E\u003Cb\u003Estatus\u003C/b\u003E: Final\u003C/p\u003E\u003Cp\u003E\u003Cb\u003Ecategory\u003C/b\u003E: \u003Cspan title=\"Codes:{http://terminology.hl7.org/CodeSystem/observation-category imaging}\"\u003EImaging\u003C/span\u003E\u003C/p\u003E\u003Cp\u003E\u003Cb\u003Ecode\u003C/b\u003E: \u003Cspan title=\"Codes:{http://snomed.info/sct 399387003}\"\u003EcM category\u003C/span\u003E\u003C/p\u003E\u003Cp\u003E\u003Cb\u003Esubject\u003C/b\u003E: \u003Ca href=\"Patient-patientJM1.html\"\u003EMosley, Jennie Female, DoB: 1955-10-03 ( http://hl7.org/fhir/sid/us-medicare#MedicareHIC#1EG4-TE5-MK73)\u003C/a\u003E\u003C/p\u003E\u003Cp\u003E\u003Cb\u003Eeffective\u003C/b\u003E: 2018-03-16\u003C/p\u003E\u003Cp\u003E\u003Cb\u003Eperformer\u003C/b\u003E: \u003Ca href=\"Practitioner-us-core-practitioner-owen-oncologist.html\"\u003EPractitioner Owen Oncologist \u003C/a\u003E\u003C/p\u003E\u003Cp\u003E\u003Cb\u003Evalue\u003C/b\u003E: \u003Cspan title=\"Codes:{http://snomed.info/sct 1229901006}\"\u003EAmerican Joint Committee on Cancer cM0 (qualifier value)\u003C/span\u003E\u003C/p\u003E\u003Cp\u003E\u003Cb\u003Emethod\u003C/b\u003E: \u003Cspan title=\"Codes:{http://snomed.info/sct 897275008}\"\u003EAmerican Joint Commission on Cancer, Cancer Staging Manual, 8th edition neoplasm staging system (tumor staging)\u003C/span\u003E\u003C/p\u003E\u003C/div\u003E"
          },
          "status": "final",
          "category": [
            {
              "coding": [
                {
                  "system": "http://terminology.hl7.org/CodeSystem/observation-category",
                  "code": "imaging",
                  "display": "Imaging"
                }
              ]
            }
          ],
          "code": {
            "coding": [
              {
                "system": "http://snomed.info/sct",
                "version": "http://snomed.info/sct/900000000000207008",
                "code": "399387003",
                "display": "cM category"
              }
            ]
          },
          "subject": {
            "reference": "Patient/patientJM1"
          },
          "effectiveDateTime": "2018-03-16",
          "performer": [
            {
              "reference": "Practitioner/us-core-practitioner-owen-oncologist"
            }
          ],
          "valueCodeableConcept": {
            "coding": [
              {
                "system": "http://snomed.info/sct",
                "version": "http://snomed.info/sct/900000000000207008",
                "code": "1229901006",
                "display": "American Joint Committee on Cancer cM0 (qualifier value)"
              }
            ]
          },
          "method": {
            "coding": [
              {
                "system": "http://snomed.info/sct",
                "version": "http://snomed.info/sct/900000000000207008",
                "code": "897275008",
                "display": "American Joint Commission on Cancer, Cancer Staging Manual, 8th edition neoplasm staging system (tumor staging)"
              }
            ]
          }
        }
      },
      {
        "fullUrl": "http://example.org/fhir/Specimen/human-specimen-left-breast-jenny-m",
        "resource": {
          "resourceType": "Specimen",
          "id": "human-specimen-left-breast-jenny-m",
          "meta": {
            "profile": [
              "http://hl7.org/fhir/us/mcode/StructureDefinition/mcode-human-specimen"
            ]
          },
          "text": {
            "status": "generated",
            "div": "\u003Cdiv xmlns=\"http://www.w3.org/1999/xhtml\"\u003E\u003Ca name=\"Specimen_human-specimen-left-breast-jenny-m\"\u003E \u003C/a\u003E\u003Cp class=\"res-header-id\"\u003E\u003Cb\u003EGenerated Narrative: Specimen human-specimen-left-breast-jenny-m\u003C/b\u003E\u003C/p\u003E\u003Ca name=\"human-specimen-left-breast-jenny-m\"\u003E \u003C/a\u003E\u003Ca name=\"hchuman-specimen-left-breast-jenny-m\"\u003E \u003C/a\u003E\u003Ca name=\"human-specimen-left-breast-jenny-m-en-US\"\u003E \u003C/a\u003E\u003Cp\u003E\u003Cb\u003Estatus\u003C/b\u003E: Available\u003C/p\u003E\u003Cp\u003E\u003Cb\u003Etype\u003C/b\u003E: \u003Cspan title=\"Codes:{http://terminology.hl7.org/CodeSystem/v2-0487 TISS}\"\u003ETissue\u003C/span\u003E\u003C/p\u003E\u003Cp\u003E\u003Cb\u003Esubject\u003C/b\u003E: \u003Ca href=\"Patient-patientJM1.html\"\u003EMosley, Jennie Female, DoB: 1955-10-03 ( http://hl7.org/fhir/sid/us-medicare#MedicareHIC#1EG4-TE5-MK73)\u003C/a\u003E\u003C/p\u003E\u003Ch3\u003ECollections\u003C/h3\u003E\u003Ctable class=\"grid\"\u003E\u003Ctr\u003E\u003Ctd style=\"display: none\"\u003E-\u003C/td\u003E\u003Ctd\u003E\u003Cb\u003ECollector\u003C/b\u003E\u003C/td\u003E\u003Ctd\u003E\u003Cb\u003EBodySite\u003C/b\u003E\u003C/td\u003E\u003C/tr\u003E\u003Ctr\u003E\u003Ctd style=\"display: none\"\u003E*\u003C/td\u003E\u003Ctd\u003E\u003Ca href=\"Practitioner-us-core-practitioner-owen-oncologist.html\"\u003EPractitioner Owen Oncologist \u003C/a\u003E\u003C/td\u003E\u003Ctd\u003E\u003Cspan title=\"Codes:{http://snomed.info/sct 80248007}\"\u003ELeft breast structure (body structure)\u003C/span\u003E\u003C/td\u003E\u003C/tr\u003E\u003C/table\u003E\u003Ch3\u003EProcessings\u003C/h3\u003E\u003Ctable class=\"grid\"\u003E\u003Ctr\u003E\u003Ctd style=\"display: none\"\u003E-\u003C/td\u003E\u003Ctd\u003E\u003Cb\u003ETime[x]\u003C/b\u003E\u003C/td\u003E\u003C/tr\u003E\u003Ctr\u003E\u003Ctd style=\"display: none\"\u003E*\u003C/td\u003E\u003Ctd\u003E2018-03-06\u003C/td\u003E\u003C/tr\u003E\u003C/table\u003E\u003C/div\u003E"
          },
          "status": "available",
          "type": {
            "coding": [
              {
                "system": "http://terminology.hl7.org/CodeSystem/v2-0487",
                "code": "TISS"
              }
            ]
          },
          "subject": {
            "reference": "Patient/patientJM1"
          },
          "collection": {
            "collector": {
              "reference": "Practitioner/us-core-practitioner-owen-oncologist"
            },
            "bodySite": {
              "coding": [
                {
                  "system": "http://snomed.info/sct",
                  "version": "http://snomed.info/sct/900000000000207008",
                  "code": "80248007",
                  "display": "Left breast structure (body structure)"
                }
              ]
            }
          },
          "processing": [
            {
              "timeDateTime": "2018-03-06"
            }
          ]
        }
      },
      {
        "fullUrl": "http://example.org/fhir/Observation/genomic-region-studied-jenny-m",
        "resource": {
          "resourceType": "Observation",
          "id": "genomic-region-studied-jenny-m",
          "meta": {
            "profile": [
              "http://hl7.org/fhir/us/mcode/StructureDefinition/mcode-genomic-region-studied"
            ]
          },
          "text": {
            "status": "generated",
            "div": "\u003Cdiv xmlns=\"http://www.w3.org/1999/xhtml\"\u003E\u003Ca name=\"Observation_genomic-region-studied-jenny-m\"\u003E \u003C/a\u003E\u003Cp class=\"res-header-id\"\u003E\u003Cb\u003EGenerated Narrative: Observation genomic-region-studied-jenny-m\u003C/b\u003E\u003C/p\u003E\u003Ca name=\"genomic-region-studied-jenny-m\"\u003E \u003C/a\u003E\u003Ca name=\"hcgenomic-region-studied-jenny-m\"\u003E \u003C/a\u003E\u003Ca name=\"genomic-region-studied-jenny-m-en-US\"\u003E \u003C/a\u003E\u003Cp\u003E\u003Cb\u003Estatus\u003C/b\u003E: Final\u003C/p\u003E\u003Cp\u003E\u003Cb\u003Ecategory\u003C/b\u003E: \u003Cspan title=\"Codes:{http://terminology.hl7.org/CodeSystem/observation-category laboratory}\"\u003ELaboratory\u003C/span\u003E\u003C/p\u003E\u003Cp\u003E\u003Cb\u003Ecode\u003C/b\u003E: \u003Cspan title=\"Codes:{http://loinc.org 53041-0}\"\u003EDNA region of interest panel\u003C/span\u003E\u003C/p\u003E\u003Cp\u003E\u003Cb\u003Esubject\u003C/b\u003E: \u003Ca href=\"Patient-patientJM1.html\"\u003EMosley, Jennie Female, DoB: 1955-10-03 ( http://hl7.org/fhir/sid/us-medicare#MedicareHIC#1EG4-TE5-MK73)\u003C/a\u003E\u003C/p\u003E\u003Cp\u003E\u003Cb\u003Eeffective\u003C/b\u003E: 2018-03-15\u003C/p\u003E\u003Cp\u003E\u003Cb\u003Eissued\u003C/b\u003E: 2018-03-15 00:00:01+0000\u003C/p\u003E\u003Cp\u003E\u003Cb\u003Eperformer\u003C/b\u003E: \u003Ca href=\"Practitioner-us-core-practitioner-owen-oncologist.html\"\u003EPractitioner Owen Oncologist \u003C/a\u003E\u003C/p\u003E\u003Cblockquote\u003E\u003Cp\u003E\u003Cb\u003Ecomponent\u003C/b\u003E\u003C/p\u003E\u003Cp\u003E\u003Cb\u003Ecode\u003C/b\u003E: \u003Cspan title=\"Codes:{http://loinc.org 48018-6}\"\u003EGene studied [ID]\u003C/span\u003E\u003C/p\u003E\u003C/blockquote\u003E\u003Cblockquote\u003E\u003Cp\u003E\u003Cb\u003Ecomponent\u003C/b\u003E\u003C/p\u003E\u003Cp\u003E\u003Cb\u003Ecode\u003C/b\u003E: \u003Cspan title=\"Codes:{http://loinc.org 48018-6}\"\u003EGene studied [ID]\u003C/span\u003E\u003C/p\u003E\u003Cp\u003E\u003Cb\u003Evalue\u003C/b\u003E: \u003Cspan title=\"Codes:{http://www.genenames.org 1100}, {http://www.genenames.org 1101}, {http://www.genenames.org 1748}, {http://www.genenames.org 26144}, {http://www.genenames.org 9588}, {http://www.genenames.org 11389}, {http://www.genenames.org 11998}\"\u003EBRCA1\u003C/span\u003E\u003C/p\u003E\u003C/blockquote\u003E\u003C/div\u003E"
          },
          "status": "final",
          "category": [
            {
              "coding": [
                {
                  "system": "http://terminology.hl7.org/CodeSystem/observation-category",
                  "code": "laboratory"
                }
              ]
            }
          ],
          "code": {
            "coding": [
              {
                "system": "http://loinc.org",
                "code": "53041-0",
                "display": "DNA region of interest panel"
              }
            ]
          },
          "subject": {
            "reference": "Patient/patientJM1"
          },
          "effectiveDateTime": "2018-03-15",
          "issued": "2018-03-15T00:00:01+00:00",
          "performer": [
            {
              "reference": "Practitioner/us-core-practitioner-owen-oncologist"
            }
          ],
          "component": [
            {
              "code": {
                "coding": [
                  {
                    "system": "http://loinc.org",
                    "code": "48018-6",
                    "display": "Gene studied [ID]"
                  }
                ]
              }
            },
            {
              "code": {
                "coding": [
                  {
                    "system": "http://loinc.org",
                    "code": "48018-6"
                  }
                ]
              },
              "valueCodeableConcept": {
                "coding": [
                  {
                    "system": "http://www.genenames.org",
                    "code": "1100",
                    "display": "BRCA1"
                  },
                  {
                    "system": "http://www.genenames.org",
                    "code": "1101",
                    "display": "BRCA2"
                  },
                  {
                    "system": "http://www.genenames.org",
                    "code": "1748",
                    "display": "CDH1"
                  },
                  {
                    "system": "http://www.genenames.org",
                    "code": "26144",
                    "display": "PALB2"
                  },
                  {
                    "system": "http://www.genenames.org",
                    "code": "9588",
                    "display": "PTEN"
                  },
                  {
                    "system": "http://www.genenames.org",
                    "code": "11389",
                    "display": "STK11"
                  },
                  {
                    "system": "http://www.genenames.org",
                    "code": "11998",
                    "display": "TP53"
                  }
                ]
              }
            }
          ]
        }
      },
      {
        "fullUrl": "http://example.org/fhir/Observation/ecog-performance-status-jenny-m",
        "resource": {
          "resourceType": "Observation",
          "id": "ecog-performance-status-jenny-m",
          "meta": {
            "profile": [
              "http://hl7.org/fhir/us/mcode/StructureDefinition/mcode-ecog-performance-status"
            ]
          },
          "text": {
            "status": "generated",
            "div": "\u003Cdiv xmlns=\"http://www.w3.org/1999/xhtml\"\u003E\u003Ca name=\"Observation_ecog-performance-status-jenny-m\"\u003E \u003C/a\u003E\u003Cp class=\"res-header-id\"\u003E\u003Cb\u003EGenerated Narrative: Observation ecog-performance-status-jenny-m\u003C/b\u003E\u003C/p\u003E\u003Ca name=\"ecog-performance-status-jenny-m\"\u003E \u003C/a\u003E\u003Ca name=\"hcecog-performance-status-jenny-m\"\u003E \u003C/a\u003E\u003Ca name=\"ecog-performance-status-jenny-m-en-US\"\u003E \u003C/a\u003E\u003Cp\u003E\u003Cb\u003Estatus\u003C/b\u003E: Final\u003C/p\u003E\u003Cp\u003E\u003Cb\u003Ecategory\u003C/b\u003E: \u003Cspan title=\"Codes:{http://terminology.hl7.org/CodeSystem/observation-category survey}\"\u003ESurvey\u003C/span\u003E, \u003Cspan title=\"Codes:{http://hl7.org/fhir/us/core/CodeSystem/us-core-observation-category clinical-test}\"\u003EClinical Test\u003C/span\u003E\u003C/p\u003E\u003Cp\u003E\u003Cb\u003Ecode\u003C/b\u003E: \u003Cspan title=\"Codes:{http://loinc.org 89247-1}\"\u003EECOG Performance Status score\u003C/span\u003E\u003C/p\u003E\u003Cp\u003E\u003Cb\u003Esubject\u003C/b\u003E: \u003Ca href=\"Patient-patientJM1.html\"\u003EMosley, Jennie Female, DoB: 1955-10-03 ( http://hl7.org/fhir/sid/us-medicare#MedicareHIC#1EG4-TE5-MK73)\u003C/a\u003E\u003C/p\u003E\u003Cp\u003E\u003Cb\u003Eeffective\u003C/b\u003E: 2018-04-12\u003C/p\u003E\u003Cp\u003E\u003Cb\u003Eperformer\u003C/b\u003E: \u003Ca href=\"Practitioner-us-core-practitioner-owen-oncologist.html\"\u003EPractitioner Owen Oncologist \u003C/a\u003E\u003C/p\u003E\u003Cp\u003E\u003Cb\u003Evalue\u003C/b\u003E: 0\u003C/p\u003E\u003Cp\u003E\u003Cb\u003Einterpretation\u003C/b\u003E: \u003Cspan title=\"Codes:{http://loinc.org LA9622-7}\"\u003EFully active, able to carry on all pre-disease performance without restriction\u003C/span\u003E\u003C/p\u003E\u003Cp\u003E\u003Cb\u003Emethod\u003C/b\u003E: \u003Cspan title=\"Codes:{http://snomed.info/sct 5880005}\"\u003EPhysical examination procedure (procedure)\u003C/span\u003E\u003C/p\u003E\u003C/div\u003E"
          },
          "status": "final",
          "category": [
            {
              "coding": [
                {
                  "system": "http://terminology.hl7.org/CodeSystem/observation-category",
                  "code": "survey",
                  "display": "Survey"
                }
              ]
            },
            {
              "coding": [
                {
                  "system": "http://hl7.org/fhir/us/core/CodeSystem/us-core-observation-category",
                  "code": "clinical-test"
                }
              ]
            }
          ],
          "code": {
            "coding": [
              {
                "system": "http://loinc.org",
                "code": "89247-1"
              }
            ]
          },
          "subject": {
            "reference": "Patient/patientJM1"
          },
          "effectiveDateTime": "2018-04-12",
          "performer": [
            {
              "reference": "Practitioner/us-core-practitioner-owen-oncologist"
            }
          ],
          "valueInteger": 0,
          "interpretation": [
            {
              "coding": [
                {
                  "system": "http://loinc.org",
                  "code": "LA9622-7",
                  "display": "Fully active, able to carry on all pre-disease performance without restriction"
                }
              ]
            }
          ],
          "method": {
            "coding": [
              {
                "system": "http://snomed.info/sct",
                "version": "http://snomed.info/sct/900000000000207008",
                "code": "5880005",
                "display": "Physical examination procedure (procedure)"
              }
            ]
          }
        }
      },
      {
        "fullUrl": "http://example.org/fhir/Observation/tumor-marker-test-er-jenny-m",
        "resource": {
          "resourceType": "Observation",
          "id": "tumor-marker-test-er-jenny-m",
          "meta": {
            "profile": [
              "http://hl7.org/fhir/us/mcode/StructureDefinition/mcode-tumor-marker-test"
            ]
          },
          "text": {
            "status": "generated",
            "div": "\u003Cdiv xmlns=\"http://www.w3.org/1999/xhtml\"\u003E\u003Ca name=\"Observation_tumor-marker-test-er-jenny-m\"\u003E \u003C/a\u003E\u003Cp class=\"res-header-id\"\u003E\u003Cb\u003EGenerated Narrative: Observation tumor-marker-test-er-jenny-m\u003C/b\u003E\u003C/p\u003E\u003Ca name=\"tumor-marker-test-er-jenny-m\"\u003E \u003C/a\u003E\u003Ca name=\"hctumor-marker-test-er-jenny-m\"\u003E \u003C/a\u003E\u003Ca name=\"tumor-marker-test-er-jenny-m-en-US\"\u003E \u003C/a\u003E\u003Cp\u003E\u003Cb\u003Estatus\u003C/b\u003E: Final\u003C/p\u003E\u003Cp\u003E\u003Cb\u003Ecategory\u003C/b\u003E: \u003Cspan title=\"Codes:{http://terminology.hl7.org/CodeSystem/observation-category laboratory}\"\u003ELaboratory\u003C/span\u003E\u003C/p\u003E\u003Cp\u003E\u003Cb\u003Ecode\u003C/b\u003E: \u003Cspan title=\"Codes:{http://loinc.org 85337-4}\"\u003EEstrogen receptor Ag [Presence] in Breast cancer specimen by Immune stain\u003C/span\u003E\u003C/p\u003E\u003Cp\u003E\u003Cb\u003Esubject\u003C/b\u003E: \u003Ca href=\"Patient-patientJM1.html\"\u003EMosley, Jennie Female, DoB: 1955-10-03 ( http://hl7.org/fhir/sid/us-medicare#MedicareHIC#1EG4-TE5-MK73)\u003C/a\u003E\u003C/p\u003E\u003Cp\u003E\u003Cb\u003Eeffective\u003C/b\u003E: 2018-03-10\u003C/p\u003E\u003Cp\u003E\u003Cb\u003Eperformer\u003C/b\u003E: \u003Ca href=\"Practitioner-us-core-practitioner-owen-oncologist.html\"\u003EPractitioner Owen Oncologist \u003C/a\u003E\u003C/p\u003E\u003Cp\u003E\u003Cb\u003Evalue\u003C/b\u003E: \u003Cspan title=\"Codes:{http://loinc.org LA6576-8}\"\u003EPositive\u003C/span\u003E\u003C/p\u003E\u003C/div\u003E"
          },
          "status": "final",
          "category": [
            {
              "coding": [
                {
                  "system": "http://terminology.hl7.org/CodeSystem/observation-category",
                  "code": "laboratory"
                }
              ]
            }
          ],
          "code": {
            "coding": [
              {
                "system": "http://loinc.org",
                "code": "85337-4",
                "display": "Estrogen receptor Ag [Presence] in Breast cancer specimen by Immune stain"
              }
            ]
          },
          "subject": {
            "reference": "Patient/patientJM1"
          },
          "effectiveDateTime": "2018-03-10",
          "performer": [
            {
              "reference": "Practitioner/us-core-practitioner-owen-oncologist"
            }
          ],
          "valueCodeableConcept": {
            "coding": [
              {
                "system": "http://loinc.org",
                "code": "LA6576-8",
                "display": "Positive"
              }
            ]
          }
        }
      },
      {
        "fullUrl": "http://example.org/fhir/Observation/tumor-marker-test-pr-jenny-m",
        "resource": {
          "resourceType": "Observation",
          "id": "tumor-marker-test-pr-jenny-m",
          "meta": {
            "profile": [
              "http://hl7.org/fhir/us/mcode/StructureDefinition/mcode-tumor-marker-test"
            ]
          },
          "text": {
            "status": "generated",
            "div": "\u003Cdiv xmlns=\"http://www.w3.org/1999/xhtml\"\u003E\u003Ca name=\"Observation_tumor-marker-test-pr-jenny-m\"\u003E \u003C/a\u003E\u003Cp class=\"res-header-id\"\u003E\u003Cb\u003EGenerated Narrative: Observation tumor-marker-test-pr-jenny-m\u003C/b\u003E\u003C/p\u003E\u003Ca name=\"tumor-marker-test-pr-jenny-m\"\u003E \u003C/a\u003E\u003Ca name=\"hctumor-marker-test-pr-jenny-m\"\u003E \u003C/a\u003E\u003Ca name=\"tumor-marker-test-pr-jenny-m-en-US\"\u003E \u003C/a\u003E\u003Cp\u003E\u003Cb\u003Estatus\u003C/b\u003E: Final\u003C/p\u003E\u003Cp\u003E\u003Cb\u003Ecategory\u003C/b\u003E: \u003Cspan title=\"Codes:{http://terminology.hl7.org/CodeSystem/observation-category laboratory}\"\u003ELaboratory\u003C/span\u003E\u003C/p\u003E\u003Cp\u003E\u003Cb\u003Ecode\u003C/b\u003E: \u003Cspan title=\"Codes:{http://loinc.org 85339-0}\"\u003EProgesterone receptor Ag [Presence] in Breast cancer specimen by Immune stain\u003C/span\u003E\u003C/p\u003E\u003Cp\u003E\u003Cb\u003Esubject\u003C/b\u003E: \u003Ca href=\"Patient-patientJM1.html\"\u003EMosley, Jennie Female, DoB: 1955-10-03 ( http://hl7.org/fhir/sid/us-medicare#MedicareHIC#1EG4-TE5-MK73)\u003C/a\u003E\u003C/p\u003E\u003Cp\u003E\u003Cb\u003Eeffective\u003C/b\u003E: 2018-03-10\u003C/p\u003E\u003Cp\u003E\u003Cb\u003Eperformer\u003C/b\u003E: \u003Ca href=\"Practitioner-us-core-practitioner-owen-oncologist.html\"\u003EPractitioner Owen Oncologist \u003C/a\u003E\u003C/p\u003E\u003Cp\u003E\u003Cb\u003Evalue\u003C/b\u003E: \u003Cspan title=\"Codes:{http://loinc.org LA6577-6}\"\u003ENegative\u003C/span\u003E\u003C/p\u003E\u003C/div\u003E"
          },
          "status": "final",
          "category": [
            {
              "coding": [
                {
                  "system": "http://terminology.hl7.org/CodeSystem/observation-category",
                  "code": "laboratory"
                }
              ]
            }
          ],
          "code": {
            "coding": [
              {
                "system": "http://loinc.org",
                "code": "85339-0",
                "display": "Progesterone receptor Ag [Presence] in Breast cancer specimen by Immune stain"
              }
            ]
          },
          "subject": {
            "reference": "Patient/patientJM1"
          },
          "effectiveDateTime": "2018-03-10",
          "performer": [
            {
              "reference": "Practitioner/us-core-practitioner-owen-oncologist"
            }
          ],
          "valueCodeableConcept": {
            "coding": [
              {
                "system": "http://loinc.org",
                "code": "LA6577-6",
                "display": "Negative"
              }
            ]
          }
        }
      },
      {
        "fullUrl": "http://example.org/fhir/Observation/tumor-marker-test-her2-jenny-m",
        "resource": {
          "resourceType": "Observation",
          "id": "tumor-marker-test-her2-jenny-m",
          "meta": {
            "profile": [
              "http://hl7.org/fhir/us/mcode/StructureDefinition/mcode-tumor-marker-test"
            ]
          },
          "text": {
            "status": "generated",
            "div": "\u003Cdiv xmlns=\"http://www.w3.org/1999/xhtml\"\u003E\u003Ca name=\"Observation_tumor-marker-test-her2-jenny-m\"\u003E \u003C/a\u003E\u003Cp class=\"res-header-id\"\u003E\u003Cb\u003EGenerated Narrative: Observation tumor-marker-test-her2-jenny-m\u003C/b\u003E\u003C/p\u003E\u003Ca name=\"tumor-marker-test-her2-jenny-m\"\u003E \u003C/a\u003E\u003Ca name=\"hctumor-marker-test-her2-jenny-m\"\u003E \u003C/a\u003E\u003Ca name=\"tumor-marker-test-her2-jenny-m-en-US\"\u003E \u003C/a\u003E\u003Cp\u003E\u003Cb\u003Estatus\u003C/b\u003E: Final\u003C/p\u003E\u003Cp\u003E\u003Cb\u003Ecategory\u003C/b\u003E: \u003Cspan title=\"Codes:{http://terminology.hl7.org/CodeSystem/observation-category laboratory}\"\u003ELaboratory\u003C/span\u003E\u003C/p\u003E\u003Cp\u003E\u003Cb\u003Ecode\u003C/b\u003E: \u003Cspan title=\"Codes:{http://loinc.org 48676-1}\"\u003EHER2 [Interpretation] in Tissue\u003C/span\u003E\u003C/p\u003E\u003Cp\u003E\u003Cb\u003Esubject\u003C/b\u003E: \u003Ca href=\"Patient-patientJM1.html\"\u003EMosley, Jennie Female, DoB: 1955-10-03 ( http://hl7.org/fhir/sid/us-medicare#MedicareHIC#1EG4-TE5-MK73)\u003C/a\u003E\u003C/p\u003E\u003Cp\u003E\u003Cb\u003Eeffective\u003C/b\u003E: 2018-03-10\u003C/p\u003E\u003Cp\u003E\u003Cb\u003Eperformer\u003C/b\u003E: \u003Ca href=\"Practitioner-us-core-practitioner-owen-oncologist.html\"\u003EPractitioner Owen Oncologist \u003C/a\u003E\u003C/p\u003E\u003Cp\u003E\u003Cb\u003Evalue\u003C/b\u003E: \u003Cspan title=\"Codes:{http://loinc.org LA6577-6}\"\u003ENegative\u003C/span\u003E\u003C/p\u003E\u003C/div\u003E"
          },
          "status": "final",
          "category": [
            {
              "coding": [
                {
                  "system": "http://terminology.hl7.org/CodeSystem/observation-category",
                  "code": "laboratory"
                }
              ]
            }
          ],
          "code": {
            "coding": [
              {
                "system": "http://loinc.org",
                "code": "48676-1",
                "display": "HER2 [Interpretation] in Tissue"
              }
            ]
          },
          "subject": {
            "reference": "Patient/patientJM1"
          },
          "effectiveDateTime": "2018-03-10",
          "performer": [
            {
              "reference": "Practitioner/us-core-practitioner-owen-oncologist"
            }
          ],
          "valueCodeableConcept": {
            "coding": [
              {
                "system": "http://loinc.org",
                "code": "LA6577-6",
                "display": "Negative"
              }
            ]
          }
        }
      },
      {
        "fullUrl": "http://example.org/fhir/Observation/tumor-marker-test-oncotype-dx-jenny-m",
        "resource": {
          "resourceType": "Observation",
          "id": "tumor-marker-test-oncotype-dx-jenny-m",
          "meta": {
            "profile": [
              "http://hl7.org/fhir/us/mcode/StructureDefinition/mcode-tumor-marker-test"
            ]
          },
          "text": {
            "status": "generated",
            "div": "\u003Cdiv xmlns=\"http://www.w3.org/1999/xhtml\"\u003E\u003Ca name=\"Observation_tumor-marker-test-oncotype-dx-jenny-m\"\u003E \u003C/a\u003E\u003Cp class=\"res-header-id\"\u003E\u003Cb\u003EGenerated Narrative: Observation tumor-marker-test-oncotype-dx-jenny-m\u003C/b\u003E\u003C/p\u003E\u003Ca name=\"tumor-marker-test-oncotype-dx-jenny-m\"\u003E \u003C/a\u003E\u003Ca name=\"hctumor-marker-test-oncotype-dx-jenny-m\"\u003E \u003C/a\u003E\u003Ca name=\"tumor-marker-test-oncotype-dx-jenny-m-en-US\"\u003E \u003C/a\u003E\u003Cp\u003E\u003Cb\u003Estatus\u003C/b\u003E: Final\u003C/p\u003E\u003Cp\u003E\u003Cb\u003Ecategory\u003C/b\u003E: \u003Cspan title=\"Codes:{http://terminology.hl7.org/CodeSystem/observation-category laboratory}\"\u003ELaboratory\u003C/span\u003E\u003C/p\u003E\u003Cp\u003E\u003Cb\u003Ecode\u003C/b\u003E: \u003Cspan title=\"Codes:{http://www.ncbi.nlm.nih.gov/gtr 509910}\"\u003EOncotype DX Breast Recurrence Score Assay\u003C/span\u003E\u003C/p\u003E\u003Cp\u003E\u003Cb\u003Esubject\u003C/b\u003E: \u003Ca href=\"Patient-patientJM1.html\"\u003EMosley, Jennie Female, DoB: 1955-10-03 ( http://hl7.org/fhir/sid/us-medicare#MedicareHIC#1EG4-TE5-MK73)\u003C/a\u003E\u003C/p\u003E\u003Cp\u003E\u003Cb\u003Eeffective\u003C/b\u003E: 2018-04-12\u003C/p\u003E\u003Cp\u003E\u003Cb\u003Eperformer\u003C/b\u003E: \u003Ca href=\"Organization-us-core-organization-bedrock-medicine.html\"\u003EOrganization Bedrock Medicine\u003C/a\u003E\u003C/p\u003E\u003Cp\u003E\u003Cb\u003Evalue\u003C/b\u003E: 47 Recurrence score\u003Cspan style=\"background: LightGoldenRodYellow\"\u003E (Details: UCUM  code1 = '1')\u003C/span\u003E\u003C/p\u003E\u003Cp\u003E\u003Cb\u003Einterpretation\u003C/b\u003E: \u003Cspan title=\"Codes:{http://terminology.hl7.org/CodeSystem/v3-ObservationInterpretation H}\"\u003EHigh\u003C/span\u003E\u003C/p\u003E\u003C/div\u003E"
          },
          "status": "final",
          "category": [
            {
              "coding": [
                {
                  "system": "http://terminology.hl7.org/CodeSystem/observation-category",
                  "code": "laboratory"
                }
              ]
            }
          ],
          "code": {
            "coding": [
              {
                "system": "http://www.ncbi.nlm.nih.gov/gtr",
                "code": "509910",
                "display": "Oncotype DX Breast Recurrence Score Assay"
              }
            ],
            "text": "Oncotype DX Breast Recurrence Score Assay"
          },
          "subject": {
            "reference": "Patient/patientJM1"
          },
          "effectiveDateTime": "2018-04-12",
          "performer": [
            {
              "reference": "Organization/us-core-organization-bedrock-medicine"
            }
          ],
          "valueQuantity": {
            "value": 47,
            "unit": "Recurrence score",
            "system": "http://unitsofmeasure.org",
            "code": "1"
          },
          "interpretation": [
            {
              "coding": [
                {
                  "system": "http://terminology.hl7.org/CodeSystem/v3-ObservationInterpretation",
                  "code": "H",
                  "display": "High"
                }
              ]
            }
          ]
        }
      },
      {
        "fullUrl": "http://example.org/fhir/Observation/tumor-size-jenny-m",
        "resource": {
          "resourceType": "Observation",
          "id": "tumor-size-jenny-m",
          "meta": {
            "profile": [
              "http://hl7.org/fhir/us/mcode/StructureDefinition/mcode-tumor-size"
            ]
          },
          "text": {
            "status": "generated",
            "div": "\u003Cdiv xmlns=\"http://www.w3.org/1999/xhtml\"\u003E\u003Ca name=\"Observation_tumor-size-jenny-m\"\u003E \u003C/a\u003E\u003Cp class=\"res-header-id\"\u003E\u003Cb\u003EGenerated Narrative: Observation tumor-size-jenny-m\u003C/b\u003E\u003C/p\u003E\u003Ca name=\"tumor-size-jenny-m\"\u003E \u003C/a\u003E\u003Ca name=\"hctumor-size-jenny-m\"\u003E \u003C/a\u003E\u003Ca name=\"tumor-size-jenny-m-en-US\"\u003E \u003C/a\u003E\u003Cp\u003E\u003Cb\u003Estatus\u003C/b\u003E: Final\u003C/p\u003E\u003Cp\u003E\u003Cb\u003Ecategory\u003C/b\u003E: \u003Cspan title=\"Codes:{http://terminology.hl7.org/CodeSystem/observation-category laboratory}\"\u003ELaboratory\u003C/span\u003E\u003C/p\u003E\u003Cp\u003E\u003Cb\u003Ecode\u003C/b\u003E: \u003Cspan title=\"Codes:{http://loinc.org 21889-1}\"\u003ESize Tumor\u003C/span\u003E\u003C/p\u003E\u003Cp\u003E\u003Cb\u003Esubject\u003C/b\u003E: \u003Ca href=\"Patient-patientJM1.html\"\u003EMosley, Jennie Female, DoB: 1955-10-03 ( http://hl7.org/fhir/sid/us-medicare#MedicareHIC#1EG4-TE5-MK73)\u003C/a\u003E\u003C/p\u003E\u003Cp\u003E\u003Cb\u003Eeffective\u003C/b\u003E: 2018-04-01 00:00:00+0000\u003C/p\u003E\u003Cp\u003E\u003Cb\u003Eperformer\u003C/b\u003E: \u003Ca href=\"Practitioner-us-core-practitioner-owen-oncologist.html\"\u003EPractitioner Owen Oncologist \u003C/a\u003E\u003C/p\u003E\u003Cp\u003E\u003Cb\u003Emethod\u003C/b\u003E: \u003Cspan title=\"Codes:{http://snomed.info/sct 787377000}\"\u003EGross examination and sampling of tissue specimen (procedure)\u003C/span\u003E\u003C/p\u003E\u003Cp\u003E\u003Cb\u003Especimen\u003C/b\u003E: \u003Ca href=\"Specimen-tumor-specimen-left-breast-jenny-m.html\"\u003ESpecimen: identifier = BodyStructure (use: usual, ); status = available; type = Tumor; receivedTime = 2018-04-01\u003C/a\u003E\u003C/p\u003E\u003Ch3\u003EComponents\u003C/h3\u003E\u003Ctable class=\"grid\"\u003E\u003Ctr\u003E\u003Ctd style=\"display: none\"\u003E-\u003C/td\u003E\u003Ctd\u003E\u003Cb\u003ECode\u003C/b\u003E\u003C/td\u003E\u003Ctd\u003E\u003Cb\u003EValue[x]\u003C/b\u003E\u003C/td\u003E\u003C/tr\u003E\u003Ctr\u003E\u003Ctd style=\"display: none\"\u003E*\u003C/td\u003E\u003Ctd\u003E\u003Cspan title=\"Codes:{http://loinc.org 33728-7}\"\u003ESize.maximum dimension in Tumor\u003C/span\u003E\u003C/td\u003E\u003Ctd\u003E2.5 centimeters\u003Cspan style=\"background: LightGoldenRodYellow\"\u003E (Details: UCUM  codecm = 'cm')\u003C/span\u003E\u003C/td\u003E\u003C/tr\u003E\u003C/table\u003E\u003C/div\u003E"
          },
          "status": "final",
          "category": [
            {
              "coding": [
                {
                  "system": "http://terminology.hl7.org/CodeSystem/observation-category",
                  "code": "laboratory"
                }
              ]
            }
          ],
          "code": {
            "coding": [
              {
                "system": "http://loinc.org",
                "code": "21889-1",
                "display": "Size Tumor"
              }
            ]
          },
          "subject": {
            "reference": "Patient/patientJM1"
          },
          "effectiveDateTime": "2018-04-01T00:00:00Z",
          "performer": [
            {
              "reference": "Practitioner/us-core-practitioner-owen-oncologist"
            }
          ],
          "method": {
            "coding": [
              {
                "system": "http://snomed.info/sct",
                "version": "http://snomed.info/sct/900000000000207008",
                "code": "787377000",
                "display": "Gross examination and sampling of tissue specimen (procedure)"
              }
            ]
          },
          "specimen": {
            "reference": "Specimen/tumor-specimen-left-breast-jenny-m"
          },
          "component": [
            {
              "code": {
                "coding": [
                  {
                    "system": "http://loinc.org",
                    "code": "33728-7"
                  }
                ]
              },
              "valueQuantity": {
                "value": 2.5,
                "unit": "centimeters",
                "system": "http://unitsofmeasure.org",
                "code": "cm"
              }
            }
          ]
        }
      },
      {
        "fullUrl": "http://example.org/fhir/Procedure/us-core-procedure-biopsy-jenny-m",
        "resource": {
          "resourceType": "Procedure",
          "id": "us-core-procedure-biopsy-jenny-m",
          "meta": {
            "profile": [
              "http://hl7.org/fhir/us/core/StructureDefinition/us-core-procedure"
            ]
          },
          "text": {
            "status": "generated",
            "div": "\u003Cdiv xmlns=\"http://www.w3.org/1999/xhtml\"\u003E\u003Ca name=\"Procedure_us-core-procedure-biopsy-jenny-m\"\u003E \u003C/a\u003E\u003Cp class=\"res-header-id\"\u003E\u003Cb\u003EGenerated Narrative: Procedure us-core-procedure-biopsy-jenny-m\u003C/b\u003E\u003C/p\u003E\u003Ca name=\"us-core-procedure-biopsy-jenny-m\"\u003E \u003C/a\u003E\u003Ca name=\"hcus-core-procedure-biopsy-jenny-m\"\u003E \u003C/a\u003E\u003Ca name=\"us-core-procedure-biopsy-jenny-m-en-US\"\u003E \u003C/a\u003E\u003Cp\u003E\u003Cb\u003Estatus\u003C/b\u003E: Completed\u003C/p\u003E\u003Cp\u003E\u003Cb\u003Ecode\u003C/b\u003E: \u003Cspan title=\"Codes:{http://snomed.info/sct 723990008}\"\u003EBiopsy of breast using ultrasonographic guidance (procedure)\u003C/span\u003E\u003C/p\u003E\u003Cp\u003E\u003Cb\u003Esubject\u003C/b\u003E: \u003Ca href=\"Patient-patientJM1.html\"\u003EMosley, Jennie Female, DoB: 1955-10-03 ( http://hl7.org/fhir/sid/us-medicare#MedicareHIC#1EG4-TE5-MK73)\u003C/a\u003E\u003C/p\u003E\u003Cp\u003E\u003Cb\u003Eperformed\u003C/b\u003E: 2018-03-06\u003C/p\u003E\u003Cp\u003E\u003Cb\u003Easserter\u003C/b\u003E: \u003Ca href=\"Practitioner-us-core-practitioner-mary-obgyn.html\"\u003EPractitioner Mary Obgyn \u003C/a\u003E\u003C/p\u003E\u003Ch3\u003EPerformers\u003C/h3\u003E\u003Ctable class=\"grid\"\u003E\u003Ctr\u003E\u003Ctd style=\"display: none\"\u003E-\u003C/td\u003E\u003Ctd\u003E\u003Cb\u003EActor\u003C/b\u003E\u003C/td\u003E\u003C/tr\u003E\u003Ctr\u003E\u003Ctd style=\"display: none\"\u003E*\u003C/td\u003E\u003Ctd\u003E\u003Ca href=\"Practitioner-us-core-practitioner-mary-obgyn.html\"\u003EPractitioner Mary Obgyn \u003C/a\u003E\u003C/td\u003E\u003C/tr\u003E\u003C/table\u003E\u003Cp\u003E\u003Cb\u003EreasonReference\u003C/b\u003E: \u003Ca href=\"Condition-primary-cancer-condition-jenny-m.html\"\u003ECondition Primary malignant neoplasm of female left breast (disorder)\u003C/a\u003E\u003C/p\u003E\u003Cp\u003E\u003Cb\u003EbodySite\u003C/b\u003E: \u003Cspan title=\"Codes:{http://snomed.info/sct 80248007}\"\u003ELeft breast structure (body structure)\u003C/span\u003E\u003C/p\u003E\u003C/div\u003E"
          },
          "status": "completed",
          "code": {
            "coding": [
              {
                "system": "http://snomed.info/sct",
                "version": "http://snomed.info/sct/900000000000207008",
                "code": "723990008",
                "display": "Biopsy of breast using ultrasonographic guidance (procedure)"
              }
            ]
          },
          "subject": {
            "reference": "Patient/patientJM1"
          },
          "performedDateTime": "2018-03-06",
          "asserter": {
            "reference": "Practitioner/us-core-practitioner-mary-obgyn"
          },
          "performer": [
            {
              "actor": {
                "reference": "Practitioner/us-core-practitioner-mary-obgyn"
              }
            }
          ],
          "reasonReference": [
            {
              "reference": "Condition/primary-cancer-condition-jenny-m"
            }
          ],
          "bodySite": [
            {
              "coding": [
                {
                  "system": "http://snomed.info/sct",
                  "version": "http://snomed.info/sct/900000000000207008",
                  "code": "80248007",
                  "display": "Left breast structure (body structure)"
                }
              ]
            }
          ]
        }
      },
      {
        "fullUrl": "http://example.org/fhir/Observation/bodyweight-jenny-m-2018-03-16",
        "resource": {
          "resourceType": "Observation",
          "id": "bodyweight-jenny-m-2018-03-16",
          "meta": {
            "profile": [
              "http://hl7.org/fhir/StructureDefinition/bodyweight"
            ]
          },
          "text": {
            "status": "generated",
            "div": "\u003Cdiv xmlns=\"http://www.w3.org/1999/xhtml\"\u003E\u003Ca name=\"Observation_bodyweight-jenny-m-2018-03-16\"\u003E \u003C/a\u003E\u003Cp class=\"res-header-id\"\u003E\u003Cb\u003EGenerated Narrative: Observation bodyweight-jenny-m-2018-03-16\u003C/b\u003E\u003C/p\u003E\u003Ca name=\"bodyweight-jenny-m-2018-03-16\"\u003E \u003C/a\u003E\u003Ca name=\"hcbodyweight-jenny-m-2018-03-16\"\u003E \u003C/a\u003E\u003Ca name=\"bodyweight-jenny-m-2018-03-16-en-US\"\u003E \u003C/a\u003E\u003Cp\u003E\u003Cb\u003Estatus\u003C/b\u003E: Final\u003C/p\u003E\u003Cp\u003E\u003Cb\u003Ecategory\u003C/b\u003E: \u003Cspan title=\"Codes:{http://terminology.hl7.org/CodeSystem/observation-category vital-signs}\"\u003EVital Signs\u003C/span\u003E\u003C/p\u003E\u003Cp\u003E\u003Cb\u003Ecode\u003C/b\u003E: \u003Cspan title=\"Codes:{http://loinc.org 29463-7}\"\u003EBody weight\u003C/span\u003E\u003C/p\u003E\u003Cp\u003E\u003Cb\u003Esubject\u003C/b\u003E: \u003Ca href=\"Patient-patientJM1.html\"\u003EMosley, Jennie Female, DoB: 1955-10-03 ( http://hl7.org/fhir/sid/us-medicare#MedicareHIC#1EG4-TE5-MK73)\u003C/a\u003E\u003C/p\u003E\u003Cp\u003E\u003Cb\u003Eeffective\u003C/b\u003E: 2018-03-06\u003C/p\u003E\u003Cp\u003E\u003Cb\u003Eperformer\u003C/b\u003E: \u003Ca href=\"Practitioner-us-core-practitioner-owen-oncologist.html\"\u003EPractitioner Owen Oncologist \u003C/a\u003E\u003C/p\u003E\u003Cp\u003E\u003Cb\u003Evalue\u003C/b\u003E: 155 lb\u003Cspan style=\"background: LightGoldenRodYellow\"\u003E (Details: UCUM  code[lb_av] = '[lb_av]')\u003C/span\u003E\u003C/p\u003E\u003C/div\u003E"
          },
          "status": "final",
          "category": [
            {
              "coding": [
                {
                  "system": "http://terminology.hl7.org/CodeSystem/observation-category",
                  "code": "vital-signs"
                }
              ]
            }
          ],
          "code": {
            "coding": [
              {
                "system": "http://loinc.org",
                "code": "29463-7"
              }
            ]
          },
          "subject": {
            "reference": "Patient/patientJM1"
          },
          "effectiveDateTime": "2018-03-06",
          "performer": [
            {
              "reference": "Practitioner/us-core-practitioner-owen-oncologist"
            }
          ],
          "valueQuantity": {
            "value": 155,
            "unit": "lb",
            "system": "http://unitsofmeasure.org",
            "code": "[lb_av]"
          }
        }
      },
      {
        "fullUrl": "http://example.org/fhir/Observation/us-core-observation-lab-neutrophils-jenny-m",
        "resource": {
          "resourceType": "Observation",
          "id": "us-core-observation-lab-neutrophils-jenny-m",
          "meta": {
            "profile": [
              "http://hl7.org/fhir/us/core/StructureDefinition/us-core-observation-lab"
            ]
          },
          "text": {
            "status": "generated",
            "div": "\u003Cdiv xmlns=\"http://www.w3.org/1999/xhtml\"\u003E\u003Ca name=\"Observation_us-core-observation-lab-neutrophils-jenny-m\"\u003E \u003C/a\u003E\u003Cp class=\"res-header-id\"\u003E\u003Cb\u003EGenerated Narrative: Observation us-core-observation-lab-neutrophils-jenny-m\u003C/b\u003E\u003C/p\u003E\u003Ca name=\"us-core-observation-lab-neutrophils-jenny-m\"\u003E \u003C/a\u003E\u003Ca name=\"hcus-core-observation-lab-neutrophils-jenny-m\"\u003E \u003C/a\u003E\u003Ca name=\"us-core-observation-lab-neutrophils-jenny-m-en-US\"\u003E \u003C/a\u003E\u003Cp\u003E\u003Cb\u003Estatus\u003C/b\u003E: Final\u003C/p\u003E\u003Cp\u003E\u003Cb\u003Ecategory\u003C/b\u003E: \u003Cspan title=\"Codes:{http://terminology.hl7.org/CodeSystem/observation-category laboratory}\"\u003ELaboratory\u003C/span\u003E\u003C/p\u003E\u003Cp\u003E\u003Cb\u003Ecode\u003C/b\u003E: \u003Cspan title=\"Codes:{http://loinc.org 26499-4}\"\u003ENeutrophils [#/volume] in Blood\u003C/span\u003E\u003C/p\u003E\u003Cp\u003E\u003Cb\u003Esubject\u003C/b\u003E: \u003Ca href=\"Patient-patientJM1.html\"\u003EMosley, Jennie Female, DoB: 1955-10-03 ( http://hl7.org/fhir/sid/us-medicare#MedicareHIC#1EG4-TE5-MK73)\u003C/a\u003E\u003C/p\u003E\u003Cp\u003E\u003Cb\u003Eeffective\u003C/b\u003E: 2018-05-20 00:00:00+0000\u003C/p\u003E\u003Cp\u003E\u003Cb\u003Eperformer\u003C/b\u003E: \u003Ca href=\"Practitioner-us-core-practitioner-owen-oncologist.html\"\u003EPractitioner Owen Oncologist \u003C/a\u003E\u003C/p\u003E\u003Cp\u003E\u003Cb\u003Evalue\u003C/b\u003E: 3000 10*3/uL\u003Cspan style=\"background: LightGoldenRodYellow\"\u003E (Details: UCUM  code10*3/uL = '10*3/uL')\u003C/span\u003E\u003C/p\u003E\u003Ch3\u003EReferenceRanges\u003C/h3\u003E\u003Ctable class=\"grid\"\u003E\u003Ctr\u003E\u003Ctd style=\"display: none\"\u003E-\u003C/td\u003E\u003Ctd\u003E\u003Cb\u003ELow\u003C/b\u003E\u003C/td\u003E\u003Ctd\u003E\u003Cb\u003EHigh\u003C/b\u003E\u003C/td\u003E\u003Ctd\u003E\u003Cb\u003EType\u003C/b\u003E\u003C/td\u003E\u003C/tr\u003E\u003Ctr\u003E\u003Ctd style=\"display: none\"\u003E*\u003C/td\u003E\u003Ctd\u003E2500 10*3/uL\u003Cspan style=\"background: LightGoldenRodYellow\"\u003E (Details: UCUM  code10*3/uL = '10*3/uL')\u003C/span\u003E\u003C/td\u003E\u003Ctd\u003E5000 10*3/uL\u003Cspan style=\"background: LightGoldenRodYellow\"\u003E (Details: UCUM  code10*3/uL = '10*3/uL')\u003C/span\u003E\u003C/td\u003E\u003Ctd\u003E\u003Cspan title=\"Codes:{http://terminology.hl7.org/CodeSystem/referencerange-meaning normal}\"\u003ENormal Range\u003C/span\u003E\u003C/td\u003E\u003C/tr\u003E\u003C/table\u003E\u003C/div\u003E"
          },
          "status": "final",
          "category": [
            {
              "coding": [
                {
                  "system": "http://terminology.hl7.org/CodeSystem/observation-category",
                  "code": "laboratory"
                }
              ]
            }
          ],
          "code": {
            "coding": [
              {
                "system": "http://loinc.org",
                "code": "26499-4",
                "display": "Neutrophils [#/volume] in Blood"
              }
            ]
          },
          "subject": {
            "reference": "Patient/patientJM1"
          },
          "effectiveDateTime": "2018-05-20T00:00:00Z",
          "performer": [
            {
              "reference": "Practitioner/us-core-practitioner-owen-oncologist"
            }
          ],
          "valueQuantity": {
            "value": 3000,
            "unit": "10*3/uL",
            "system": "http://unitsofmeasure.org",
            "code": "10*3/uL"
          },
          "referenceRange": [
            {
              "low": {
                "value": 2500,
                "unit": "10*3/uL",
                "system": "http://unitsofmeasure.org",
                "code": "10*3/uL"
              },
              "high": {
                "value": 5000,
                "unit": "10*3/uL",
                "system": "http://unitsofmeasure.org",
                "code": "10*3/uL"
              },
              "type": {
                "coding": [
                  {
                    "system": "http://terminology.hl7.org/CodeSystem/referencerange-meaning",
                    "code": "normal",
                    "display": "Normal Range"
                  }
                ]
              }
            }
          ]
        }
      },
      {
        "fullUrl": "http://example.org/fhir/Organization/us-core-organization-physician-services-inc",
        "resource": {
          "resourceType": "Organization",
          "id": "us-core-organization-physician-services-inc",
          "meta": {
            "profile": [
              "http://hl7.org/fhir/us/core/StructureDefinition/us-core-organization"
            ]
          },
          "text": {
            "status": "generated",
            "div": "\u003Cdiv xmlns=\"http://www.w3.org/1999/xhtml\"\u003E\u003Ca name=\"Organization_us-core-organization-physician-services-inc\"\u003E \u003C/a\u003E\u003Cp class=\"res-header-id\"\u003E\u003Cb\u003EGenerated Narrative: Organization us-core-organization-physician-services-inc\u003C/b\u003E\u003C/p\u003E\u003Ca name=\"us-core-organization-physician-services-inc\"\u003E \u003C/a\u003E\u003Ca name=\"hcus-core-organization-physician-services-inc\"\u003E \u003C/a\u003E\u003Ca name=\"us-core-organization-physician-services-inc-en-US\"\u003E \u003C/a\u003E\u003Cp\u003E\u003Cb\u003Eactive\u003C/b\u003E: true\u003C/p\u003E\u003Cp\u003E\u003Cb\u003Etype\u003C/b\u003E: \u003Cspan title=\"Codes:{http://terminology.hl7.org/CodeSystem/organization-type prov}\"\u003EHealthcare Provider\u003C/span\u003E\u003C/p\u003E\u003Cp\u003E\u003Cb\u003Ename\u003C/b\u003E: Physician Services, Inc.\u003C/p\u003E\u003Cp\u003E\u003Cb\u003Etelecom\u003C/b\u003E: ph: 999-999-9999(Work)\u003C/p\u003E\u003Cp\u003E\u003Cb\u003Eaddress\u003C/b\u003E: 123 Corporate Drive Anytown MA 12345 US \u003C/p\u003E\u003C/div\u003E"
          },
          "active": true,
          "type": [
            {
              "coding": [
                {
                  "system": "http://terminology.hl7.org/CodeSystem/organization-type",
                  "code": "prov",
                  "display": "Healthcare Provider"
                }
              ]
            }
          ],
          "name": "Physician Services, Inc.",
          "telecom": [
            {
              "system": "phone",
              "value": "999-999-9999",
              "use": "work"
            }
          ],
          "address": [
            {
              "line": [
                "123 Corporate Drive"
              ],
              "city": "Anytown",
              "state": "MA",
              "postalCode": "12345",
              "country": "US"
            }
          ]
        }
      },
      {
        "fullUrl": "http://example.org/fhir/Observation/us-core-smokingstatus-jenny-m",
        "resource": {
          "resourceType": "Observation",
          "id": "us-core-smokingstatus-jenny-m",
          "meta": {
            "profile": [
              "http://hl7.org/fhir/us/core/StructureDefinition/us-core-smokingstatus"
            ]
          },
          "text": {
            "status": "generated",
            "div": "\u003Cdiv xmlns=\"http://www.w3.org/1999/xhtml\"\u003E\u003Ca name=\"Observation_us-core-smokingstatus-jenny-m\"\u003E \u003C/a\u003E\u003Cp class=\"res-header-id\"\u003E\u003Cb\u003EGenerated Narrative: Observation us-core-smokingstatus-jenny-m\u003C/b\u003E\u003C/p\u003E\u003Ca name=\"us-core-smokingstatus-jenny-m\"\u003E \u003C/a\u003E\u003Ca name=\"hcus-core-smokingstatus-jenny-m\"\u003E \u003C/a\u003E\u003Ca name=\"us-core-smokingstatus-jenny-m-en-US\"\u003E \u003C/a\u003E\u003Cp\u003E\u003Cb\u003Estatus\u003C/b\u003E: Final\u003C/p\u003E\u003Cp\u003E\u003Cb\u003Ecategory\u003C/b\u003E: \u003Cspan title=\"Codes:{http://terminology.hl7.org/CodeSystem/observation-category social-history}\"\u003ESocial History\u003C/span\u003E\u003C/p\u003E\u003Cp\u003E\u003Cb\u003Ecode\u003C/b\u003E: \u003Cspan title=\"Codes:{http://loinc.org 72166-2}\"\u003ETobacco smoking status\u003C/span\u003E\u003C/p\u003E\u003Cp\u003E\u003Cb\u003Esubject\u003C/b\u003E: \u003Ca href=\"Patient-patientJM1.html\"\u003EMosley, Jennie Female, DoB: 1955-10-03 ( http://hl7.org/fhir/sid/us-medicare#MedicareHIC#1EG4-TE5-MK73)\u003C/a\u003E\u003C/p\u003E\u003Cp\u003E\u003Cb\u003Eeffective\u003C/b\u003E: 2018-03-16\u003C/p\u003E\u003Cp\u003E\u003Cb\u003Eissued\u003C/b\u003E: 2018-03-16 00:00:00+0000\u003C/p\u003E\u003Cp\u003E\u003Cb\u003Eperformer\u003C/b\u003E: \u003Ca href=\"Practitioner-us-core-practitioner-owen-oncologist.html\"\u003EPractitioner Owen Oncologist \u003C/a\u003E\u003C/p\u003E\u003Cp\u003E\u003Cb\u003Evalue\u003C/b\u003E: \u003Cspan title=\"Codes:{http://snomed.info/sct 449868002}\"\u003ESmokes tobacco daily (finding)\u003C/span\u003E\u003C/p\u003E\u003C/div\u003E"
          },
          "status": "final",
          "category": [
            {
              "coding": [
                {
                  "system": "http://terminology.hl7.org/CodeSystem/observation-category",
                  "code": "social-history"
                }
              ]
            }
          ],
          "code": {
            "coding": [
              {
                "system": "http://loinc.org",
                "code": "72166-2",
                "display": "Tobacco smoking status"
              }
            ]
          },
          "subject": {
            "reference": "Patient/patientJM1"
          },
          "effectiveDateTime": "2018-03-16",
          "issued": "2018-03-16T00:00:00Z",
          "performer": [
            {
              "reference": "Practitioner/us-core-practitioner-owen-oncologist"
            }
          ],
          "valueCodeableConcept": {
            "coding": [
              {
                "system": "http://snomed.info/sct",
                "version": "http://snomed.info/sct/900000000000207008",
                "code": "449868002",
                "display": "Smokes tobacco daily (finding)"
              }
            ]
          }
        }
      },
      {
        "fullUrl": "http://example.org/fhir/Procedure/us-core-procedure-mammogram-jenny-m",
        "resource": {
          "resourceType": "Procedure",
          "id": "us-core-procedure-mammogram-jenny-m",
          "meta": {
            "profile": [
              "http://hl7.org/fhir/us/core/StructureDefinition/us-core-procedure"
            ]
          },
          "text": {
            "status": "generated",
            "div": "\u003Cdiv xmlns=\"http://www.w3.org/1999/xhtml\"\u003E\u003Ca name=\"Procedure_us-core-procedure-mammogram-jenny-m\"\u003E \u003C/a\u003E\u003Cp class=\"res-header-id\"\u003E\u003Cb\u003EGenerated Narrative: Procedure us-core-procedure-mammogram-jenny-m\u003C/b\u003E\u003C/p\u003E\u003Ca name=\"us-core-procedure-mammogram-jenny-m\"\u003E \u003C/a\u003E\u003Ca name=\"hcus-core-procedure-mammogram-jenny-m\"\u003E \u003C/a\u003E\u003Ca name=\"us-core-procedure-mammogram-jenny-m-en-US\"\u003E \u003C/a\u003E\u003Cp\u003E\u003Cb\u003Estatus\u003C/b\u003E: Completed\u003C/p\u003E\u003Cp\u003E\u003Cb\u003Ecode\u003C/b\u003E: \u003Cspan title=\"Codes:{http://snomed.info/sct 71651007}\"\u003EMammography (procedure)\u003C/span\u003E\u003C/p\u003E\u003Cp\u003E\u003Cb\u003Esubject\u003C/b\u003E: \u003Ca href=\"Patient-patientJM1.html\"\u003EMosley, Jennie Female, DoB: 1955-10-03 ( http://hl7.org/fhir/sid/us-medicare#MedicareHIC#1EG4-TE5-MK73)\u003C/a\u003E\u003C/p\u003E\u003Cp\u003E\u003Cb\u003Eperformed\u003C/b\u003E: 2018-02-01\u003C/p\u003E\u003Cp\u003E\u003Cb\u003Easserter\u003C/b\u003E: \u003Ca href=\"Practitioner-us-core-practitioner-mary-obgyn.html\"\u003EPractitioner Mary Obgyn \u003C/a\u003E\u003C/p\u003E\u003Ch3\u003EPerformers\u003C/h3\u003E\u003Ctable class=\"grid\"\u003E\u003Ctr\u003E\u003Ctd style=\"display: none\"\u003E-\u003C/td\u003E\u003Ctd\u003E\u003Cb\u003EActor\u003C/b\u003E\u003C/td\u003E\u003C/tr\u003E\u003Ctr\u003E\u003Ctd style=\"display: none\"\u003E*\u003C/td\u003E\u003Ctd\u003E\u003Ca href=\"Practitioner-us-core-practitioner-jane-radiotech.html\"\u003EPractitioner Jane Radiologist \u003C/a\u003E\u003C/td\u003E\u003C/tr\u003E\u003C/table\u003E\u003Cp\u003E\u003Cb\u003EreasonCode\u003C/b\u003E: \u003Cspan title=\"Codes:{http://snomed.info/sct 360156006}\"\u003EScreening - procedure intent (qualifier value)\u003C/span\u003E\u003C/p\u003E\u003C/div\u003E"
          },
          "status": "completed",
          "code": {
            "coding": [
              {
                "system": "http://snomed.info/sct",
                "version": "http://snomed.info/sct/900000000000207008",
                "code": "71651007",
                "display": "Mammography (procedure)"
              }
            ]
          },
          "subject": {
            "reference": "Patient/patientJM1"
          },
          "performedDateTime": "2018-02-01",
          "asserter": {
            "reference": "Practitioner/us-core-practitioner-mary-obgyn"
          },
          "performer": [
            {
              "actor": {
                "reference": "Practitioner/us-core-practitioner-jane-radiotech"
              }
            }
          ],
          "reasonCode": [
            {
              "coding": [
                {
                  "system": "http://snomed.info/sct",
                  "version": "http://snomed.info/sct/900000000000207008",
                  "code": "360156006",
                  "display": "Screening - procedure intent (qualifier value)"
                }
              ]
            }
          ]
        }
      },
      {
        "fullUrl": "http://example.org/fhir/FamilyMemberHistory/family-member-history-aunt-jenny-m",
        "resource": {
          "resourceType": "FamilyMemberHistory",
          "id": "family-member-history-aunt-jenny-m",
          "text": {
            "status": "generated",
            "div": "\u003Cdiv xmlns=\"http://www.w3.org/1999/xhtml\"\u003E\u003Ca name=\"FamilyMemberHistory_family-member-history-aunt-jenny-m\"\u003E \u003C/a\u003E\u003Cp class=\"res-header-id\"\u003E\u003Cb\u003EGenerated Narrative: FamilyMemberHistory family-member-history-aunt-jenny-m\u003C/b\u003E\u003C/p\u003E\u003Ca name=\"family-member-history-aunt-jenny-m\"\u003E \u003C/a\u003E\u003Ca name=\"hcfamily-member-history-aunt-jenny-m\"\u003E \u003C/a\u003E\u003Ca name=\"family-member-history-aunt-jenny-m-en-US\"\u003E \u003C/a\u003E\u003Cp\u003E\u003Cb\u003Estatus\u003C/b\u003E: Completed\u003C/p\u003E\u003Cp\u003E\u003Cb\u003Epatient\u003C/b\u003E: \u003Ca href=\"Patient-patientJM1.html\"\u003EMosley, Jennie Female, DoB: 1955-10-03 ( http://hl7.org/fhir/sid/us-medicare#MedicareHIC#1EG4-TE5-MK73)\u003C/a\u003E\u003C/p\u003E\u003Cp\u003E\u003Cb\u003Erelationship\u003C/b\u003E: \u003Cspan title=\"Codes:{http://terminology.hl7.org/CodeSystem/v3-RoleCode MAUNT}\"\u003Ematernal aunt\u003C/span\u003E\u003C/p\u003E\u003Ch3\u003EConditions\u003C/h3\u003E\u003Ctable class=\"grid\"\u003E\u003Ctr\u003E\u003Ctd style=\"display: none\"\u003E-\u003C/td\u003E\u003Ctd\u003E\u003Cb\u003ECode\u003C/b\u003E\u003C/td\u003E\u003Ctd\u003E\u003Cb\u003EOnset[x]\u003C/b\u003E\u003C/td\u003E\u003C/tr\u003E\u003Ctr\u003E\u003Ctd style=\"display: none\"\u003E*\u003C/td\u003E\u003Ctd\u003E\u003Cspan title=\"Codes:{http://snomed.info/sct 363443007}\"\u003EMalignant tumor of ovary (disorder)\u003C/span\u003E\u003C/td\u003E\u003Ctd\u003E69 a\u003Cspan style=\"background: LightGoldenRodYellow\"\u003E (Details: UCUM  codea = 'a')\u003C/span\u003E\u003C/td\u003E\u003C/tr\u003E\u003C/table\u003E\u003C/div\u003E"
          },
          "status": "completed",
          "patient": {
            "reference": "Patient/patientJM1"
          },
          "relationship": {
            "coding": [
              {
                "system": "http://terminology.hl7.org/CodeSystem/v3-RoleCode",
                "code": "MAUNT",
                "display": "maternal aunt"
              }
            ]
          },
          "condition": [
            {
              "code": {
                "coding": [
                  {
                    "system": "http://snomed.info/sct",
                    "version": "http://snomed.info/sct/900000000000207008",
                    "code": "363443007",
                    "display": "Malignant tumor of ovary (disorder)"
                  }
                ]
              },
              "onsetAge": {
                "value": 69,
                "system": "http://unitsofmeasure.org",
                "code": "a"
              }
            }
          ]
        }
      },
      {
        "fullUrl": "http://example.org/fhir/FamilyMemberHistory/family-member-history-uncle-jenny-m",
        "resource": {
          "resourceType": "FamilyMemberHistory",
          "id": "family-member-history-uncle-jenny-m",
          "text": {
            "status": "generated",
            "div": "\u003Cdiv xmlns=\"http://www.w3.org/1999/xhtml\"\u003E\u003Ca name=\"FamilyMemberHistory_family-member-history-uncle-jenny-m\"\u003E \u003C/a\u003E\u003Cp class=\"res-header-id\"\u003E\u003Cb\u003EGenerated Narrative: FamilyMemberHistory family-member-history-uncle-jenny-m\u003C/b\u003E\u003C/p\u003E\u003Ca name=\"family-member-history-uncle-jenny-m\"\u003E \u003C/a\u003E\u003Ca name=\"hcfamily-member-history-uncle-jenny-m\"\u003E \u003C/a\u003E\u003Ca name=\"family-member-history-uncle-jenny-m-en-US\"\u003E \u003C/a\u003E\u003Cp\u003E\u003Cb\u003Estatus\u003C/b\u003E: Completed\u003C/p\u003E\u003Cp\u003E\u003Cb\u003Epatient\u003C/b\u003E: \u003Ca href=\"Patient-patientJM1.html\"\u003EMosley, Jennie Female, DoB: 1955-10-03 ( http://hl7.org/fhir/sid/us-medicare#MedicareHIC#1EG4-TE5-MK73)\u003C/a\u003E\u003C/p\u003E\u003Cp\u003E\u003Cb\u003Erelationship\u003C/b\u003E: \u003Cspan title=\"Codes:{http://terminology.hl7.org/CodeSystem/v3-RoleCode PUNCLE}\"\u003Epaternal uncle\u003C/span\u003E\u003C/p\u003E\u003Cp\u003E\u003Cb\u003Edeceased\u003C/b\u003E: true\u003C/p\u003E\u003Ch3\u003EConditions\u003C/h3\u003E\u003Ctable class=\"grid\"\u003E\u003Ctr\u003E\u003Ctd style=\"display: none\"\u003E-\u003C/td\u003E\u003Ctd\u003E\u003Cb\u003ECode\u003C/b\u003E\u003C/td\u003E\u003Ctd\u003E\u003Cb\u003EContributedToDeath\u003C/b\u003E\u003C/td\u003E\u003C/tr\u003E\u003Ctr\u003E\u003Ctd style=\"display: none\"\u003E*\u003C/td\u003E\u003Ctd\u003E\u003Cspan title=\"Codes:{http://snomed.info/sct 363418001}\"\u003EMalignant tumor of pancreas (disorder)\u003C/span\u003E\u003C/td\u003E\u003Ctd\u003Etrue\u003C/td\u003E\u003C/tr\u003E\u003C/table\u003E\u003C/div\u003E"
          },
          "status": "completed",
          "patient": {
            "reference": "Patient/patientJM1"
          },
          "relationship": {
            "coding": [
              {
                "system": "http://terminology.hl7.org/CodeSystem/v3-RoleCode",
                "code": "PUNCLE",
                "display": "paternal uncle"
              }
            ]
          },
          "deceasedBoolean": true,
          "condition": [
            {
              "code": {
                "coding": [
                  {
                    "system": "http://snomed.info/sct",
                    "version": "http://snomed.info/sct/900000000000207008",
                    "code": "363418001",
                    "display": "Malignant tumor of pancreas (disorder)"
                  }
                ]
              },
              "contributedToDeath": true
            }
          ]
        }
      },
      {
        "fullUrl": "http://example.org/fhir/DiagnosticReport/us-core-diagnosticreport-lab-jenny-m",
        "resource": {
          "resourceType": "DiagnosticReport",
          "id": "us-core-diagnosticreport-lab-jenny-m",
          "meta": {
            "profile": [
              "http://hl7.org/fhir/us/core/StructureDefinition/us-core-diagnosticreport-lab"
            ]
          },
          "text": {
            "status": "generated",
            "div": "\u003Cdiv xmlns=\"http://www.w3.org/1999/xhtml\"\u003E\u003Ca name=\"DiagnosticReport_us-core-diagnosticreport-lab-jenny-m\"\u003E \u003C/a\u003E\u003Cp class=\"res-header-id\"\u003E\u003Cb\u003EGenerated Narrative: DiagnosticReport us-core-diagnosticreport-lab-jenny-m\u003C/b\u003E\u003C/p\u003E\u003Ca name=\"us-core-diagnosticreport-lab-jenny-m\"\u003E \u003C/a\u003E\u003Ca name=\"hcus-core-diagnosticreport-lab-jenny-m\"\u003E \u003C/a\u003E\u003Ca name=\"us-core-diagnosticreport-lab-jenny-m-en-US\"\u003E \u003C/a\u003E\u003Ch2\u003E\u003Cspan title=\"Codes:{http://loinc.org 22637-3}\"\u003EPathology report final diagnosis Narrative\u003C/span\u003E (\u003Cspan title=\"Codes:{http://terminology.hl7.org/CodeSystem/v2-0074 LAB}\"\u003ELaboratory\u003C/span\u003E) \u003C/h2\u003E\u003Ctable class=\"grid\"\u003E\u003Ctr\u003E\u003Ctd\u003ESubject\u003C/td\u003E\u003Ctd\u003EMosley, Jennie Female, DoB: 1955-10-03 ( http://hl7.org/fhir/sid/us-medicare#MedicareHIC#1EG4-TE5-MK73)\u003C/td\u003E\u003C/tr\u003E\u003Ctr\u003E\u003Ctd\u003EWhen For\u003C/td\u003E\u003Ctd\u003E2018-04-01 00:00:00+0000\u003C/td\u003E\u003C/tr\u003E\u003Ctr\u003E\u003Ctd\u003EReported\u003C/td\u003E\u003Ctd\u003E2018-04-05 00:00:00+0000\u003C/td\u003E\u003C/tr\u003E\u003Ctr\u003E\u003Ctd\u003EPerformer\u003C/td\u003E\u003Ctd\u003E \u003Ca href=\"Practitioner-us-core-practitioner-owen-oncologist.html\"\u003EPractitioner Owen Oncologist \u003C/a\u003E\u003C/td\u003E\u003C/tr\u003E\u003C/table\u003E\u003Cp\u003E\u003Cb\u003EReport Details\u003C/b\u003E\u003C/p\u003E\u003Ctable class=\"grid\"\u003E\u003Ctr\u003E\u003Ctd\u003E\u003Cb\u003ECode\u003C/b\u003E\u003C/td\u003E\u003Ctd\u003E\u003Cb\u003EValue\u003C/b\u003E\u003C/td\u003E\u003Ctd\u003E\u003Cb\u003EFlags\u003C/b\u003E\u003C/td\u003E\u003Ctd\u003E\u003Cb\u003EWhen For\u003C/b\u003E\u003C/td\u003E\u003C/tr\u003E\u003Ctr\u003E\u003Ctd\u003E\u003Ca href=\"Observation-us-core-observation-lab-tumor-invasion-jenny-m.html\"\u003E\u003Cspan title=\"Codes:{http://snomed.info/sct 370052007}\"\u003EStatus of invasion by tumor\u003C/span\u003E\u003C/a\u003E\u003C/td\u003E\u003Ctd\u003E\u003Cspan title=\"Codes:{http://snomed.info/sct 260385009}\"\u003ENegative (qualifier value)\u003C/span\u003E\u003C/td\u003E\u003Ctd\u003EFinal\u003C/td\u003E\u003Ctd/\u003E\u003C/tr\u003E\u003Ctr\u003E\u003Ctd\u003E\u003Ca href=\"Observation-us-core-observation-lab-tumor-margins-jenny-m.html\"\u003E\u003Cspan title=\"Codes:{http://loinc.org 44669-0}\"\u003EMargin involvement in Breast tumor\u003C/span\u003E\u003C/a\u003E\u003C/td\u003E\u003Ctd\u003E\u003Cspan title=\"Codes:{http://loinc.org LA27151-2}\"\u003EUninvolved by invasive carcinoma\u003C/span\u003E\u003C/td\u003E\u003Ctd\u003EFinal\u003C/td\u003E\u003Ctd/\u003E\u003C/tr\u003E\u003Ctr\u003E\u003Ctd\u003E\u003Ca href=\"Observation-us-core-observation-lab-sentinel-nodes-jenny-m.html\"\u003E\u003Cspan title=\"Codes:{http://loinc.org 92832-5}\"\u003ESentinel lymph nodes with metastasis [#] in Cancer specimen\u003C/span\u003E\u003C/a\u003E\u003C/td\u003E\u003Ctd/\u003E\u003Ctd\u003EFinal\u003C/td\u003E\u003Ctd/\u003E\u003C/tr\u003E\u003Ctr\u003E\u003Ctd\u003E\u003Ca href=\"Observation-tumor-size-jenny-m.html\"\u003E\u003Cspan title=\"Codes:{http://loinc.org 21889-1}\"\u003ESize Tumor\u003C/span\u003E\u003C/a\u003E\u003C/td\u003E\u003Ctd/\u003E\u003Ctd\u003EFinal\u003C/td\u003E\u003Ctd/\u003E\u003C/tr\u003E\u003Ctr\u003E\u003Ctd\u003E\u003Ca href=\"Observation-us-core-observation-lab-tumor-dcis-jenny-m.html\"\u003E\u003Cspan title=\"Codes:{http://loinc.org 85336-6}\"\u003EDCIS intraductal extension in Breast cancer specimen Qualitative by Light microscopy\u003C/span\u003E\u003C/a\u003E\u003C/td\u003E\u003Ctd\u003E\u003Cspan title=\"Codes:{http://loinc.org LA27261-9}\"\u003EDCIS present with extensive intraductal component (EIC)\u003C/span\u003E\u003C/td\u003E\u003Ctd\u003EFinal\u003C/td\u003E\u003Ctd/\u003E\u003C/tr\u003E\u003Ctr\u003E\u003Ctd\u003E\u003Ca href=\"Observation-tumor-marker-test-her2-jenny-m.html\"\u003E\u003Cspan title=\"Codes:{http://loinc.org 48676-1}\"\u003EHER2 [Interpretation] in Tissue\u003C/span\u003E\u003C/a\u003E\u003C/td\u003E\u003Ctd\u003E\u003Cspan title=\"Codes:{http://loinc.org LA6577-6}\"\u003ENegative\u003C/span\u003E\u003C/td\u003E\u003Ctd\u003EFinal\u003C/td\u003E\u003Ctd\u003E2018-03-10\u003C/td\u003E\u003C/tr\u003E\u003Ctr\u003E\u003Ctd\u003E\u003Ca href=\"Observation-tumor-marker-test-er-jenny-m.html\"\u003E\u003Cspan title=\"Codes:{http://loinc.org 85337-4}\"\u003EEstrogen receptor Ag [Presence] in Breast cancer specimen by Immune stain\u003C/span\u003E\u003C/a\u003E\u003C/td\u003E\u003Ctd\u003E\u003Cspan title=\"Codes:{http://loinc.org LA6576-8}\"\u003EPositive\u003C/span\u003E\u003C/td\u003E\u003Ctd\u003EFinal\u003C/td\u003E\u003Ctd\u003E2018-03-10\u003C/td\u003E\u003C/tr\u003E\u003Ctr\u003E\u003Ctd\u003E\u003Ca href=\"Observation-tumor-marker-test-pr-jenny-m.html\"\u003E\u003Cspan title=\"Codes:{http://loinc.org 85339-0}\"\u003EProgesterone receptor Ag [Presence] in Breast cancer specimen by Immune stain\u003C/span\u003E\u003C/a\u003E\u003C/td\u003E\u003Ctd\u003E\u003Cspan title=\"Codes:{http://loinc.org LA6577-6}\"\u003ENegative\u003C/span\u003E\u003C/td\u003E\u003Ctd\u003EFinal\u003C/td\u003E\u003Ctd\u003E2018-03-10\u003C/td\u003E\u003C/tr\u003E\u003Ctr\u003E\u003Ctd\u003E\u003Ca href=\"Observation-us-core-observation-lab-tumor-grade-jenny-m.html\"\u003E\u003Cspan title=\"Codes:{http://loinc.org 44648-4}\"\u003EHistologic grade [Score] in Breast cancer specimen by Nottingham\u003C/span\u003E\u003C/a\u003E\u003C/td\u003E\u003Ctd\u003E\u003Cspan title=\"Codes:{http://loinc.org LA27824-4}\"\u003ENottingham grade 2\u003C/span\u003E\u003C/td\u003E\u003Ctd\u003EFinal\u003C/td\u003E\u003Ctd/\u003E\u003C/tr\u003E\u003C/table\u003E\u003C/div\u003E"
          },
          "status": "final",
          "category": [
            {
              "coding": [
                {
                  "system": "http://terminology.hl7.org/CodeSystem/v2-0074",
                  "code": "LAB"
                }
              ]
            }
          ],
          "code": {
            "coding": [
              {
                "system": "http://loinc.org",
                "code": "22637-3",
                "display": "Pathology report final diagnosis Narrative"
              }
            ]
          },
          "subject": {
            "reference": "Patient/patientJM1"
          },
          "effectiveDateTime": "2018-04-01T00:00:00Z",
          "issued": "2018-04-05T00:00:00Z",
          "performer": [
            {
              "reference": "Practitioner/us-core-practitioner-owen-oncologist"
            }
          ],
          "resultsInterpreter": [
            {
              "reference": "Practitioner/us-core-practitioner-peter-pathologist"
            }
          ],
          "specimen": [
            {
              "reference": "Specimen/tumor-specimen-left-breast-jenny-m"
            }
          ],
          "result": [
            {
              "reference": "Observation/us-core-observation-lab-tumor-invasion-jenny-m"
            },
            {
              "reference": "Observation/us-core-observation-lab-tumor-margins-jenny-m"
            },
            {
              "reference": "Observation/us-core-observation-lab-sentinel-nodes-jenny-m"
            },
            {
              "reference": "Observation/tumor-size-jenny-m"
            },
            {
              "reference": "Observation/us-core-observation-lab-tumor-dcis-jenny-m"
            },
            {
              "reference": "Observation/tumor-marker-test-her2-jenny-m"
            },
            {
              "reference": "Observation/tumor-marker-test-er-jenny-m"
            },
            {
              "reference": "Observation/tumor-marker-test-pr-jenny-m"
            },
            {
              "reference": "Observation/us-core-observation-lab-tumor-grade-jenny-m"
            }
          ]
        }
      },
      {
        "fullUrl": "http://example.org/fhir/Observation/observation-smoking-pack-years-jenny-m",
        "resource": {
          "resourceType": "Observation",
          "id": "observation-smoking-pack-years-jenny-m",
          "text": {
            "status": "generated",
            "div": "\u003Cdiv xmlns=\"http://www.w3.org/1999/xhtml\"\u003E\u003Ca name=\"Observation_observation-smoking-pack-years-jenny-m\"\u003E \u003C/a\u003E\u003Cp class=\"res-header-id\"\u003E\u003Cb\u003EGenerated Narrative: Observation observation-smoking-pack-years-jenny-m\u003C/b\u003E\u003C/p\u003E\u003Ca name=\"observation-smoking-pack-years-jenny-m\"\u003E \u003C/a\u003E\u003Ca name=\"hcobservation-smoking-pack-years-jenny-m\"\u003E \u003C/a\u003E\u003Ca name=\"observation-smoking-pack-years-jenny-m-en-US\"\u003E \u003C/a\u003E\u003Cp\u003E\u003Cb\u003Estatus\u003C/b\u003E: Final\u003C/p\u003E\u003Cp\u003E\u003Cb\u003Ecategory\u003C/b\u003E: \u003Cspan title=\"Codes:{http://terminology.hl7.org/CodeSystem/observation-category social-history}\"\u003ESocial History\u003C/span\u003E\u003C/p\u003E\u003Cp\u003E\u003Cb\u003Ecode\u003C/b\u003E: \u003Cspan title=\"Codes:{http://snomed.info/sct 401201003}\"\u003ECigarette pack-years (observable entity)\u003C/span\u003E\u003C/p\u003E\u003Cp\u003E\u003Cb\u003Esubject\u003C/b\u003E: \u003Ca href=\"Patient-patientJM1.html\"\u003EMosley, Jennie Female, DoB: 1955-10-03 ( http://hl7.org/fhir/sid/us-medicare#MedicareHIC#1EG4-TE5-MK73)\u003C/a\u003E\u003C/p\u003E\u003Cp\u003E\u003Cb\u003Eeffective\u003C/b\u003E: 2018-03-16\u003C/p\u003E\u003Cp\u003E\u003Cb\u003Eperformer\u003C/b\u003E: \u003Ca href=\"Practitioner-us-core-practitioner-owen-oncologist.html\"\u003EPractitioner Owen Oncologist \u003C/a\u003E\u003C/p\u003E\u003Cp\u003E\u003Cb\u003Evalue\u003C/b\u003E: 20 Pack-Years\u003Cspan style=\"background: LightGoldenRodYellow\"\u003E (Details: UCUM  code1 = '1')\u003C/span\u003E\u003C/p\u003E\u003C/div\u003E"
          },
          "status": "final",
          "category": [
            {
              "coding": [
                {
                  "system": "http://terminology.hl7.org/CodeSystem/observation-category",
                  "code": "social-history",
                  "display": "Social History"
                }
              ]
            }
          ],
          "code": {
            "coding": [
              {
                "system": "http://snomed.info/sct",
                "version": "http://snomed.info/sct/900000000000207008",
                "code": "401201003",
                "display": "Cigarette pack-years (observable entity)"
              }
            ]
          },
          "subject": {
            "reference": "Patient/patientJM1"
          },
          "effectiveDateTime": "2018-03-16",
          "performer": [
            {
              "reference": "Practitioner/us-core-practitioner-owen-oncologist"
            }
          ],
          "valueQuantity": {
            "value": 20,
            "unit": "Pack-Years",
            "system": "http://unitsofmeasure.org",
            "code": "1"
          }
        }
      },
      {
        "fullUrl": "http://example.org/fhir/Observation/us-core-observation-lab-tumor-invasion-jenny-m",
        "resource": {
          "resourceType": "Observation",
          "id": "us-core-observation-lab-tumor-invasion-jenny-m",
          "meta": {
            "profile": [
              "http://hl7.org/fhir/us/core/StructureDefinition/us-core-observation-lab"
            ]
          },
          "text": {
            "status": "generated",
            "div": "\u003Cdiv xmlns=\"http://www.w3.org/1999/xhtml\"\u003E\u003Ca name=\"Observation_us-core-observation-lab-tumor-invasion-jenny-m\"\u003E \u003C/a\u003E\u003Cp class=\"res-header-id\"\u003E\u003Cb\u003EGenerated Narrative: Observation us-core-observation-lab-tumor-invasion-jenny-m\u003C/b\u003E\u003C/p\u003E\u003Ca name=\"us-core-observation-lab-tumor-invasion-jenny-m\"\u003E \u003C/a\u003E\u003Ca name=\"hcus-core-observation-lab-tumor-invasion-jenny-m\"\u003E \u003C/a\u003E\u003Ca name=\"us-core-observation-lab-tumor-invasion-jenny-m-en-US\"\u003E \u003C/a\u003E\u003Cp\u003E\u003Cb\u003Estatus\u003C/b\u003E: Final\u003C/p\u003E\u003Cp\u003E\u003Cb\u003Ecategory\u003C/b\u003E: \u003Cspan title=\"Codes:{http://terminology.hl7.org/CodeSystem/observation-category laboratory}\"\u003ELaboratory\u003C/span\u003E\u003C/p\u003E\u003Cp\u003E\u003Cb\u003Ecode\u003C/b\u003E: \u003Cspan title=\"Codes:{http://snomed.info/sct 370052007}\"\u003EStatus of invasion by tumor\u003C/span\u003E\u003C/p\u003E\u003Cp\u003E\u003Cb\u003Esubject\u003C/b\u003E: \u003Ca href=\"Patient-patientJM1.html\"\u003EMosley, Jennie Female, DoB: 1955-10-03 ( http://hl7.org/fhir/sid/us-medicare#MedicareHIC#1EG4-TE5-MK73)\u003C/a\u003E\u003C/p\u003E\u003Cp\u003E\u003Cb\u003Eeffective\u003C/b\u003E: 2018-04-01 00:00:00+0000\u003C/p\u003E\u003Cp\u003E\u003Cb\u003Eperformer\u003C/b\u003E: \u003Ca href=\"Practitioner-us-core-practitioner-owen-oncologist.html\"\u003EPractitioner Owen Oncologist \u003C/a\u003E\u003C/p\u003E\u003Cp\u003E\u003Cb\u003Evalue\u003C/b\u003E: \u003Cspan title=\"Codes:{http://snomed.info/sct 260385009}\"\u003ENegative (qualifier value)\u003C/span\u003E\u003C/p\u003E\u003Cp\u003E\u003Cb\u003Especimen\u003C/b\u003E: \u003Ca href=\"Specimen-tumor-specimen-left-breast-jenny-m.html\"\u003ESpecimen: identifier = BodyStructure (use: usual, ); status = available; type = Tumor; receivedTime = 2018-04-01\u003C/a\u003E\u003C/p\u003E\u003C/div\u003E"
          },
          "status": "final",
          "category": [
            {
              "coding": [
                {
                  "system": "http://terminology.hl7.org/CodeSystem/observation-category",
                  "code": "laboratory"
                }
              ]
            }
          ],
          "code": {
            "coding": [
              {
                "system": "http://snomed.info/sct",
                "version": "http://snomed.info/sct/900000000000207008",
                "code": "370052007",
                "display": "Status of invasion by tumor"
              }
            ]
          },
          "subject": {
            "reference": "Patient/patientJM1"
          },
          "effectiveDateTime": "2018-04-01T00:00:00Z",
          "performer": [
            {
              "reference": "Practitioner/us-core-practitioner-owen-oncologist"
            }
          ],
          "valueCodeableConcept": {
            "coding": [
              {
                "system": "http://snomed.info/sct",
                "version": "http://snomed.info/sct/900000000000207008",
                "code": "260385009",
                "display": "Negative (qualifier value)"
              }
            ]
          },
          "specimen": {
            "reference": "Specimen/tumor-specimen-left-breast-jenny-m"
          }
        }
      },
      {
        "fullUrl": "http://example.org/fhir/Observation/us-core-observation-lab-tumor-margins-jenny-m",
        "resource": {
          "resourceType": "Observation",
          "id": "us-core-observation-lab-tumor-margins-jenny-m",
          "meta": {
            "profile": [
              "http://hl7.org/fhir/us/core/StructureDefinition/us-core-observation-lab"
            ]
          },
          "text": {
            "status": "generated",
            "div": "\u003Cdiv xmlns=\"http://www.w3.org/1999/xhtml\"\u003E\u003Ca name=\"Observation_us-core-observation-lab-tumor-margins-jenny-m\"\u003E \u003C/a\u003E\u003Cp class=\"res-header-id\"\u003E\u003Cb\u003EGenerated Narrative: Observation us-core-observation-lab-tumor-margins-jenny-m\u003C/b\u003E\u003C/p\u003E\u003Ca name=\"us-core-observation-lab-tumor-margins-jenny-m\"\u003E \u003C/a\u003E\u003Ca name=\"hcus-core-observation-lab-tumor-margins-jenny-m\"\u003E \u003C/a\u003E\u003Ca name=\"us-core-observation-lab-tumor-margins-jenny-m-en-US\"\u003E \u003C/a\u003E\u003Cp\u003E\u003Cb\u003Estatus\u003C/b\u003E: Final\u003C/p\u003E\u003Cp\u003E\u003Cb\u003Ecategory\u003C/b\u003E: \u003Cspan title=\"Codes:{http://terminology.hl7.org/CodeSystem/observation-category laboratory}\"\u003ELaboratory\u003C/span\u003E\u003C/p\u003E\u003Cp\u003E\u003Cb\u003Ecode\u003C/b\u003E: \u003Cspan title=\"Codes:{http://loinc.org 44669-0}\"\u003EMargin involvement in Breast tumor\u003C/span\u003E\u003C/p\u003E\u003Cp\u003E\u003Cb\u003Esubject\u003C/b\u003E: \u003Ca href=\"Patient-patientJM1.html\"\u003EMosley, Jennie Female, DoB: 1955-10-03 ( http://hl7.org/fhir/sid/us-medicare#MedicareHIC#1EG4-TE5-MK73)\u003C/a\u003E\u003C/p\u003E\u003Cp\u003E\u003Cb\u003Eeffective\u003C/b\u003E: 2018-04-01 00:00:00+0000\u003C/p\u003E\u003Cp\u003E\u003Cb\u003Eperformer\u003C/b\u003E: \u003Ca href=\"Practitioner-us-core-practitioner-owen-oncologist.html\"\u003EPractitioner Owen Oncologist \u003C/a\u003E\u003C/p\u003E\u003Cp\u003E\u003Cb\u003Evalue\u003C/b\u003E: \u003Cspan title=\"Codes:{http://loinc.org LA27151-2}\"\u003EUninvolved by invasive carcinoma\u003C/span\u003E\u003C/p\u003E\u003Cp\u003E\u003Cb\u003Especimen\u003C/b\u003E: \u003Ca href=\"Specimen-tumor-specimen-left-breast-jenny-m.html\"\u003ESpecimen: identifier = BodyStructure (use: usual, ); status = available; type = Tumor; receivedTime = 2018-04-01\u003C/a\u003E\u003C/p\u003E\u003C/div\u003E"
          },
          "status": "final",
          "category": [
            {
              "coding": [
                {
                  "system": "http://terminology.hl7.org/CodeSystem/observation-category",
                  "code": "laboratory"
                }
              ]
            }
          ],
          "code": {
            "coding": [
              {
                "system": "http://loinc.org",
                "code": "44669-0",
                "display": "Margin involvement in Breast tumor"
              }
            ]
          },
          "subject": {
            "reference": "Patient/patientJM1"
          },
          "effectiveDateTime": "2018-04-01T00:00:00Z",
          "performer": [
            {
              "reference": "Practitioner/us-core-practitioner-owen-oncologist"
            }
          ],
          "valueCodeableConcept": {
            "coding": [
              {
                "system": "http://loinc.org",
                "code": "LA27151-2",
                "display": "Uninvolved by invasive carcinoma"
              }
            ]
          },
          "specimen": {
            "reference": "Specimen/tumor-specimen-left-breast-jenny-m"
          }
        }
      },
      {
        "fullUrl": "http://example.org/fhir/Observation/us-core-observation-lab-sentinel-nodes-jenny-m",
        "resource": {
          "resourceType": "Observation",
          "id": "us-core-observation-lab-sentinel-nodes-jenny-m",
          "meta": {
            "profile": [
              "http://hl7.org/fhir/us/core/StructureDefinition/us-core-observation-lab"
            ]
          },
          "text": {
            "status": "generated",
            "div": "\u003Cdiv xmlns=\"http://www.w3.org/1999/xhtml\"\u003E\u003Ca name=\"Observation_us-core-observation-lab-sentinel-nodes-jenny-m\"\u003E \u003C/a\u003E\u003Cp class=\"res-header-id\"\u003E\u003Cb\u003EGenerated Narrative: Observation us-core-observation-lab-sentinel-nodes-jenny-m\u003C/b\u003E\u003C/p\u003E\u003Ca name=\"us-core-observation-lab-sentinel-nodes-jenny-m\"\u003E \u003C/a\u003E\u003Ca name=\"hcus-core-observation-lab-sentinel-nodes-jenny-m\"\u003E \u003C/a\u003E\u003Ca name=\"us-core-observation-lab-sentinel-nodes-jenny-m-en-US\"\u003E \u003C/a\u003E\u003Cp\u003E\u003Cb\u003Estatus\u003C/b\u003E: Final\u003C/p\u003E\u003Cp\u003E\u003Cb\u003Ecategory\u003C/b\u003E: \u003Cspan title=\"Codes:{http://terminology.hl7.org/CodeSystem/observation-category laboratory}\"\u003ELaboratory\u003C/span\u003E\u003C/p\u003E\u003Cp\u003E\u003Cb\u003Ecode\u003C/b\u003E: \u003Cspan title=\"Codes:{http://loinc.org 92832-5}\"\u003ESentinel lymph nodes with metastasis [#] in Cancer specimen\u003C/span\u003E\u003C/p\u003E\u003Cp\u003E\u003Cb\u003Esubject\u003C/b\u003E: \u003Ca href=\"Patient-patientJM1.html\"\u003EMosley, Jennie Female, DoB: 1955-10-03 ( http://hl7.org/fhir/sid/us-medicare#MedicareHIC#1EG4-TE5-MK73)\u003C/a\u003E\u003C/p\u003E\u003Cp\u003E\u003Cb\u003Eeffective\u003C/b\u003E: 2018-04-01 00:00:00+0000\u003C/p\u003E\u003Cp\u003E\u003Cb\u003Eperformer\u003C/b\u003E: \u003Ca href=\"Practitioner-us-core-practitioner-owen-oncologist.html\"\u003EPractitioner Owen Oncologist \u003C/a\u003E\u003C/p\u003E\u003Cp\u003E\u003Cb\u003Especimen\u003C/b\u003E: \u003Ca href=\"Specimen-tumor-specimen-left-breast-jenny-m.html\"\u003ESpecimen: identifier = BodyStructure (use: usual, ); status = available; type = Tumor; receivedTime = 2018-04-01\u003C/a\u003E\u003C/p\u003E\u003Ch3\u003EComponents\u003C/h3\u003E\u003Ctable class=\"grid\"\u003E\u003Ctr\u003E\u003Ctd style=\"display: none\"\u003E-\u003C/td\u003E\u003Ctd\u003E\u003Cb\u003ECode\u003C/b\u003E\u003C/td\u003E\u003Ctd\u003E\u003Cb\u003EValue[x]\u003C/b\u003E\u003C/td\u003E\u003C/tr\u003E\u003Ctr\u003E\u003Ctd style=\"display: none\"\u003E*\u003C/td\u003E\u003Ctd\u003E\u003Cspan title=\"Codes:{http://loinc.org 92833-3}\"\u003ELymph nodes examined [#] in Cancer specimen by Light microscopy\u003C/span\u003E\u003C/td\u003E\u003Ctd\u003E3 Count\u003Cspan style=\"background: LightGoldenRodYellow\"\u003E (Details: UCUM  code1 = '1')\u003C/span\u003E\u003C/td\u003E\u003C/tr\u003E\u003C/table\u003E\u003C/div\u003E"
          },
          "status": "final",
          "category": [
            {
              "coding": [
                {
                  "system": "http://terminology.hl7.org/CodeSystem/observation-category",
                  "code": "laboratory"
                }
              ]
            }
          ],
          "code": {
            "coding": [
              {
                "system": "http://loinc.org",
                "code": "92832-5",
                "display": "Sentinel lymph nodes with metastasis [#] in Cancer specimen"
              }
            ]
          },
          "subject": {
            "reference": "Patient/patientJM1"
          },
          "effectiveDateTime": "2018-04-01T00:00:00Z",
          "performer": [
            {
              "reference": "Practitioner/us-core-practitioner-owen-oncologist"
            }
          ],
          "specimen": {
            "reference": "Specimen/tumor-specimen-left-breast-jenny-m"
          },
          "component": [
            {
              "code": {
                "coding": [
                  {
                    "system": "http://loinc.org",
                    "code": "92833-3",
                    "display": "Lymph nodes examined [#] in Cancer specimen by Light microscopy"
                  }
                ]
              },
              "valueQuantity": {
                "value": 3,
                "unit": "Count",
                "system": "http://unitsofmeasure.org",
                "code": "1"
              }
            }
          ]
        }
      },
      {
        "fullUrl": "http://example.org/fhir/Observation/us-core-observation-lab-tumor-dcis-jenny-m",
        "resource": {
          "resourceType": "Observation",
          "id": "us-core-observation-lab-tumor-dcis-jenny-m",
          "meta": {
            "profile": [
              "http://hl7.org/fhir/us/core/StructureDefinition/us-core-observation-lab"
            ]
          },
          "text": {
            "status": "generated",
            "div": "\u003Cdiv xmlns=\"http://www.w3.org/1999/xhtml\"\u003E\u003Ca name=\"Observation_us-core-observation-lab-tumor-dcis-jenny-m\"\u003E \u003C/a\u003E\u003Cp class=\"res-header-id\"\u003E\u003Cb\u003EGenerated Narrative: Observation us-core-observation-lab-tumor-dcis-jenny-m\u003C/b\u003E\u003C/p\u003E\u003Ca name=\"us-core-observation-lab-tumor-dcis-jenny-m\"\u003E \u003C/a\u003E\u003Ca name=\"hcus-core-observation-lab-tumor-dcis-jenny-m\"\u003E \u003C/a\u003E\u003Ca name=\"us-core-observation-lab-tumor-dcis-jenny-m-en-US\"\u003E \u003C/a\u003E\u003Cp\u003E\u003Cb\u003Estatus\u003C/b\u003E: Final\u003C/p\u003E\u003Cp\u003E\u003Cb\u003Ecategory\u003C/b\u003E: \u003Cspan title=\"Codes:{http://terminology.hl7.org/CodeSystem/observation-category laboratory}\"\u003ELaboratory\u003C/span\u003E\u003C/p\u003E\u003Cp\u003E\u003Cb\u003Ecode\u003C/b\u003E: \u003Cspan title=\"Codes:{http://loinc.org 85336-6}\"\u003EDCIS intraductal extension in Breast cancer specimen Qualitative by Light microscopy\u003C/span\u003E\u003C/p\u003E\u003Cp\u003E\u003Cb\u003Esubject\u003C/b\u003E: \u003Ca href=\"Patient-patientJM1.html\"\u003EMosley, Jennie Female, DoB: 1955-10-03 ( http://hl7.org/fhir/sid/us-medicare#MedicareHIC#1EG4-TE5-MK73)\u003C/a\u003E\u003C/p\u003E\u003Cp\u003E\u003Cb\u003Eeffective\u003C/b\u003E: 2018-04-01 00:00:00+0000\u003C/p\u003E\u003Cp\u003E\u003Cb\u003Eperformer\u003C/b\u003E: \u003Ca href=\"Practitioner-us-core-practitioner-owen-oncologist.html\"\u003EPractitioner Owen Oncologist \u003C/a\u003E\u003C/p\u003E\u003Cp\u003E\u003Cb\u003Evalue\u003C/b\u003E: \u003Cspan title=\"Codes:{http://loinc.org LA27261-9}\"\u003EDCIS present with extensive intraductal component (EIC)\u003C/span\u003E\u003C/p\u003E\u003Cp\u003E\u003Cb\u003Especimen\u003C/b\u003E: \u003Ca href=\"Specimen-tumor-specimen-left-breast-jenny-m.html\"\u003ESpecimen: identifier = BodyStructure (use: usual, ); status = available; type = Tumor; receivedTime = 2018-04-01\u003C/a\u003E\u003C/p\u003E\u003C/div\u003E"
          },
          "status": "final",
          "category": [
            {
              "coding": [
                {
                  "system": "http://terminology.hl7.org/CodeSystem/observation-category",
                  "code": "laboratory"
                }
              ]
            }
          ],
          "code": {
            "coding": [
              {
                "system": "http://loinc.org",
                "code": "85336-6",
                "display": "DCIS intraductal extension in Breast cancer specimen Qualitative by Light microscopy"
              }
            ]
          },
          "subject": {
            "reference": "Patient/patientJM1"
          },
          "effectiveDateTime": "2018-04-01T00:00:00Z",
          "performer": [
            {
              "reference": "Practitioner/us-core-practitioner-owen-oncologist"
            }
          ],
          "valueCodeableConcept": {
            "coding": [
              {
                "system": "http://loinc.org",
                "code": "LA27261-9",
                "display": "DCIS present with extensive intraductal component (EIC)"
              }
            ]
          },
          "specimen": {
            "reference": "Specimen/tumor-specimen-left-breast-jenny-m"
          }
        }
      },
      {
        "fullUrl": "http://example.org/fhir/Practitioner/us-core-practitioner-owen-oncologist",
        "resource": {
          "resourceType": "Practitioner",
          "id": "us-core-practitioner-owen-oncologist",
          "meta": {
            "profile": [
              "http://hl7.org/fhir/us/core/StructureDefinition/us-core-practitioner"
            ]
          },
          "text": {
            "status": "generated",
            "div": "\u003Cdiv xmlns=\"http://www.w3.org/1999/xhtml\"\u003E\u003Ca name=\"Practitioner_us-core-practitioner-owen-oncologist\"\u003E \u003C/a\u003E\u003Cp class=\"res-header-id\"\u003E\u003Cb\u003EGenerated Narrative: Practitioner us-core-practitioner-owen-oncologist\u003C/b\u003E\u003C/p\u003E\u003Ca name=\"us-core-practitioner-owen-oncologist\"\u003E \u003C/a\u003E\u003Ca name=\"hcus-core-practitioner-owen-oncologist\"\u003E \u003C/a\u003E\u003Ca name=\"us-core-practitioner-owen-oncologist-en-US\"\u003E \u003C/a\u003E\u003Cp\u003E\u003Cb\u003Eidentifier\u003C/b\u003E: \u003Ca href=\"http://terminology.hl7.org/3.1.0/NamingSystem-npi.html\" title=\"National Provider Identifier\"\u003ENPI\u003C/a\u003E/9988776651\u003C/p\u003E\u003Cp\u003E\u003Cb\u003Ename\u003C/b\u003E: Owen Oncologist \u003C/p\u003E\u003Cp\u003E\u003Cb\u003Eaddress\u003C/b\u003E: 123 Corporate Drive Anytown MA 12345 US (work)\u003C/p\u003E\u003Cp\u003E\u003Cb\u003Egender\u003C/b\u003E: Male\u003C/p\u003E\u003Ch3\u003EQualifications\u003C/h3\u003E\u003Ctable class=\"grid\"\u003E\u003Ctr\u003E\u003Ctd style=\"display: none\"\u003E-\u003C/td\u003E\u003Ctd\u003E\u003Cb\u003ECode\u003C/b\u003E\u003C/td\u003E\u003C/tr\u003E\u003Ctr\u003E\u003Ctd style=\"display: none\"\u003E*\u003C/td\u003E\u003Ctd\u003E\u003Cspan title=\"Codes:{http://terminology.hl7.org/CodeSystem/v2-0360 MD}\"\u003EDoctor of Medicine\u003C/span\u003E\u003C/td\u003E\u003C/tr\u003E\u003C/table\u003E\u003C/div\u003E"
          },
          "identifier": [
            {
              "system": "http://hl7.org/fhir/sid/us-npi",
              "value": "9988776651"
            }
          ],
          "name": [
            {
              "family": "Oncologist",
              "given": [
                "Owen"
              ],
              "prefix": [
                "Dr."
              ]
            }
          ],
          "address": [
            {
              "use": "work",
              "line": [
                "123 Corporate Drive"
              ],
              "city": "Anytown",
              "state": "MA",
              "postalCode": "12345",
              "country": "US"
            }
          ],
          "gender": "male",
          "qualification": [
            {
              "code": {
                "coding": [
                  {
                    "system": "http://terminology.hl7.org/CodeSystem/v2-0360",
                    "version": "2.7",
                    "code": "MD"
                  }
                ]
              }
            }
          ]
        }
      },
      {
        "fullUrl": "http://example.org/fhir/Practitioner/us-core-practitioner-peter-pathologist",
        "resource": {
          "resourceType": "Practitioner",
          "id": "us-core-practitioner-peter-pathologist",
          "meta": {
            "profile": [
              "http://hl7.org/fhir/us/core/StructureDefinition/us-core-practitioner"
            ]
          },
          "text": {
            "status": "generated",
            "div": "\u003Cdiv xmlns=\"http://www.w3.org/1999/xhtml\"\u003E\u003Ca name=\"Practitioner_us-core-practitioner-peter-pathologist\"\u003E \u003C/a\u003E\u003Cp class=\"res-header-id\"\u003E\u003Cb\u003EGenerated Narrative: Practitioner us-core-practitioner-peter-pathologist\u003C/b\u003E\u003C/p\u003E\u003Ca name=\"us-core-practitioner-peter-pathologist\"\u003E \u003C/a\u003E\u003Ca name=\"hcus-core-practitioner-peter-pathologist\"\u003E \u003C/a\u003E\u003Ca name=\"us-core-practitioner-peter-pathologist-en-US\"\u003E \u003C/a\u003E\u003Cp\u003E\u003Cb\u003Eidentifier\u003C/b\u003E: \u003Ca href=\"http://terminology.hl7.org/3.1.0/NamingSystem-npi.html\" title=\"National Provider Identifier\"\u003ENPI\u003C/a\u003E/1122334455\u003C/p\u003E\u003Cp\u003E\u003Cb\u003Ename\u003C/b\u003E: Peter Pathologist \u003C/p\u003E\u003Cp\u003E\u003Cb\u003Eaddress\u003C/b\u003E: 123 Corporate Drive Anytown MA 12345 US (work)\u003C/p\u003E\u003Cp\u003E\u003Cb\u003Egender\u003C/b\u003E: Female\u003C/p\u003E\u003Ch3\u003EQualifications\u003C/h3\u003E\u003Ctable class=\"grid\"\u003E\u003Ctr\u003E\u003Ctd style=\"display: none\"\u003E-\u003C/td\u003E\u003Ctd\u003E\u003Cb\u003ECode\u003C/b\u003E\u003C/td\u003E\u003C/tr\u003E\u003Ctr\u003E\u003Ctd style=\"display: none\"\u003E*\u003C/td\u003E\u003Ctd\u003E\u003Cspan title=\"Codes:{http://terminology.hl7.org/CodeSystem/v2-0360 MD}\"\u003EDoctor of Medicine\u003C/span\u003E\u003C/td\u003E\u003C/tr\u003E\u003C/table\u003E\u003C/div\u003E"
          },
          "identifier": [
            {
              "system": "http://hl7.org/fhir/sid/us-npi",
              "value": "1122334455"
            }
          ],
          "name": [
            {
              "family": "Pathologist",
              "given": [
                "Peter"
              ],
              "prefix": [
                "Dr."
              ]
            }
          ],
          "address": [
            {
              "use": "work",
              "line": [
                "123 Corporate Drive"
              ],
              "city": "Anytown",
              "state": "MA",
              "postalCode": "12345",
              "country": "US"
            }
          ],
          "gender": "female",
          "qualification": [
            {
              "code": {
                "coding": [
                  {
                    "system": "http://terminology.hl7.org/CodeSystem/v2-0360",
                    "version": "2.7",
                    "code": "MD"
                  }
                ]
              }
            }
          ]
        }
      }
    ]
  }