{
  "type": "message",
  "entry": [
    {
      "resource": {
        "extension": [
          {
            "url": "https://github.com/Open-Health-Manager/patient-data-receipt-ig/StructureDefinition/AccountExtension",
            "valueString": "P0522-v5-patientBSJ1"
          }
        ],
        "eventUri": "urn:mitre:healthmanager:pdr",
        "source": {
          "endpoint": "http://sample.data.org/"
        },
        "resourceType": "MessageHeader"
      }
    },
    {
      "resource": {
        "id": "P0522-v5-mcc-personal-initial",
        "status": "active",
        "intent": "plan",
        "title": "Personal Care Plan - 2021",
        "description": "Plan for Betsy Smith Johnson's self-care at home in 2021.",
        "subject": {
          "reference": "Patient/P0522-v5-patientBSJ1"
        },
        "period": {
          "start": "2021-01-01",
          "end": "2022-01-01"
        },
        "author": {
          "reference": "Practitioner/P0522-v5-Practitioner-JohnSmith"
        },
        "careTeam": [
          {
            "reference": "CareTeam/P0522-v5-mcc-team-support"
          }
        ],
        "addresses": [
          {
            "reference": "Condition/P0522-v5-Prob-Diabetes"
          },
          {
            "reference": "Condition/P0522-v5-Prob-Hypertension"
          }
        ],
        "goal": [
          {
            "reference": "Goal/P0522-v5-mcc-goal-exercise"
          }
        ],
        "activity": [
          {
            "detail": {
              "kind": "ServiceRequest",
              "code": {
                "coding": [
                  {
                    "system": "http://loinc.org",
                    "code": "29463-7",
                    "display": "Body weight"
                  }
                ]
              },
              "status": "in-progress",
              "scheduledTiming": {
                "repeat": {
                  "boundsPeriod": {
                    "start": "2021-01-01",
                    "end": "2022-01-01"
                  },
                  "frequency": 1,
                  "period": 1,
                  "periodUnit": "d"
                }
              },
              "performer": [
                {
                  "reference": "Patient/P0522-v5-patientBSJ1"
                }
              ],
              "description": "Record your weight each morning before breakfast."
            }
          },
          {
            "detail": {
              "kind": "ServiceRequest",
              "code": {
                "coding": [
                  {
                    "system": "http://loinc.org",
                    "code": "55284-4",
                    "display": "Blood pressure systolic and diastolic"
                  }
                ]
              },
              "status": "in-progress",
              "scheduledTiming": {
                "repeat": {
                  "boundsPeriod": {
                    "start": "2021-01-01",
                    "end": "2022-01-01"
                  },
                  "frequency": 2,
                  "period": 1,
                  "periodUnit": "d"
                }
              },
              "performer": [
                {
                  "reference": "Patient/P0522-v5-patientBSJ1"
                }
              ],
              "description": "Record your blood pressure twice per day, morning and evening."
            }
          },
          {
            "detail": {
              "kind": "ServiceRequest",
              "code": {
                "coding": [
                  {
                    "system": "http://loinc.org",
                    "code": "2339-0",
                    "display": "Glucose [Mass/volume] in Blood"
                  }
                ]
              },
              "status": "in-progress",
              "scheduledTiming": {
                "repeat": {
                  "boundsPeriod": {
                    "start": "2021-01-01",
                    "end": "2022-01-01"
                  },
                  "frequency": 2,
                  "period": 1,
                  "periodUnit": "d"
                }
              },
              "performer": [
                {
                  "reference": "Patient/P0522-v5-patientBSJ1"
                }
              ],
              "description": "Record your blood glucose twice per day, after breakfast and dinner."
            }
          }
        ],
        "resourceType": "CarePlan"
      }
    },
    {
      "resource": {
        "id": "P0522-v5-mcc-service-steps",
        "extension": [
          {
            "url": "http://hl7.org/fhir/StructureDefinition/resource-pertainsToGoal",
            "valueReference": {
              "reference": "Goal/P0522-v5-mcc-goal-exercise"
            }
          }
        ],
        "status": "active",
        "intent": "plan",
        "code": {
          "coding": [
            {
              "system": "http://loinc.org",
              "code": "41950-7",
              "display": "Number of steps in 24 hour Measured"
            }
          ],
          "text": "Daily Step Count"
        },
        "subject": {
          "reference": "Patient/P0522-v5-patientBSJ1"
        },
        "occurrenceTiming": {
          "repeat": {
            "boundsPeriod": {
              "start": "2021-01-01",
              "end": "2022-01-01"
            },
            "frequency": 1,
            "period": 1,
            "periodUnit": "d"
          }
        },
        "requester": {
          "reference": "Practitioner/P0522-v5-Practitioner-JohnSmith"
        },
        "performer": [
          {
            "reference": "Patient/P0522-v5-patientBSJ1"
          }
        ],
        "reasonReference": [
          {
            "reference": "Condition/P0522-v5-Prob-Diabetes"
          }
        ],
        "note": [
          {
            "text": "Record your daily total step count before going to bed each evening."
          }
        ],
        "resourceType": "ServiceRequest"
      }
    },
    {
      "resource": {
        "id": "P0522-v5-mcc-goal-exercise",
        "lifecycleStatus": "active",
        "achievementStatus": {
          "coding": [
            {
              "system": "http://terminology.hl7.org/CodeSystem/goal-achievement",
              "code": "in-progress",
              "display": "In Progress"
            }
          ],
          "text": "In Progress"
        },
        "description": {
          "text": "Exercise at least 30 minutes per day"
        },
        "subject": {
          "reference": "Patient/P0522-v5-patientBSJ1"
        },
        "startDate": "2021-06-30",
        "target": [
          {
            "measure": {
              "coding": [
                {
                  "system": "http://loinc.org",
                  "code": "55411-3",
                  "display": "Exercise duration"
                }
              ],
              "text": "Exercise duration"
            }
          }
        ],
        "expressedBy": {
          "reference": "Practitioner/P0522-v5-Practitioner-JohnSmith"
        },
        "addresses": [
          {
            "reference": "Condition/P0522-v5-Prob-CKD",
            "display": "Chronic kidney disease"
          },
          {
            "reference": "Condition/P0522-v5-Prob-Diabetes",
            "display": "Type 2 diabetes mellitus"
          }
        ],
        "resourceType": "Goal"
      }
    },
    {
      "resource": {
        "id": "P0522-v5-mcc-diabetes-and-ckd-initial",
        "status": "active",
        "intent": "plan",
        "title": "Diabetes and CKD Care Plan - 2021",
        "description": "Care plan to optimize Type 2 Diabetes Mellitus control and slow the progression of Chronic Kidney Disease in 2021",
        "subject": {
          "reference": "Patient/P0522-v5-patientBSJ1"
        },
        "period": {
          "start": "2021-01-01"
        },
        "author": {
          "reference": "Practitioner/P0522-v5-Practitioner-JohnSmith"
        },
        "careTeam": [
          {
            "reference": "CareTeam/P0522-v5-mcc-team"
          }
        ],
        "addresses": [
          {
            "reference": "Condition/P0522-v5-Prob-CKD"
          },
          {
            "reference": "Condition/P0522-v5-Prob-Diabetes"
          }
        ],
        "goal": [
          {
            "reference": "Goal/P0522-v5-mcc-goal-bp"
          },
          {
            "reference": "Goal/P0522-v5-mcc-goal-lab-phos"
          }
        ],
        "activity": [
          {
            "reference": {
              "reference": "ServiceRequest/P0522-v5-mcc-service-edu-ckd"
            }
          },
          {
            "reference": {
              "reference": "ServiceRequest/P0522-v5-mcc-service-exercise"
            }
          },
          {
            "reference": {
              "reference": "ServiceRequest/P0522-v5-mcc-service-steps"
            }
          }
        ],
        "resourceType": "CarePlan"
      }
    },
    {
      "resource": {
        "id": "P0522-v5-mcc-goal-bp",
        "lifecycleStatus": "active",
        "achievementStatus": {
          "coding": [
            {
              "system": "http://terminology.hl7.org/CodeSystem/goal-achievement",
              "code": "in-progress",
              "display": "In Progress"
            }
          ],
          "text": "In Progress"
        },
        "priority": {
          "coding": [
            {
              "system": "http://terminology.hl7.org/CodeSystem/goal-priority",
              "code": "medium-priority",
              "display": "Medium Priority"
            }
          ],
          "text": "medium"
        },
        "description": {
          "text": "Blood pressure below 140/80"
        },
        "subject": {
          "reference": "Patient/P0522-v5-patientBSJ1"
        },
        "startDate": "2021-08-15",
        "target": [
          {
            "measure": {
              "coding": [
                {
                  "system": "http://loinc.org",
                  "code": "8480-6",
                  "display": "Systolic blood pressure"
                }
              ],
              "text": "Systolic blood pressure"
            },
            "detailQuantity": {
              "value": 140,
              "unit": "mmHg",
              "system": "http://unitsofmeasure.org",
              "code": "mm[Hg]"
            },
            "dueDate": "2022-03-01"
          },
          {
            "measure": {
              "coding": [
                {
                  "system": "http://loinc.org",
                  "code": "8462-4",
                  "display": "Diastolic blood pressure"
                }
              ],
              "text": "Diastolic blood pressure"
            },
            "detailQuantity": {
              "value": 80,
              "unit": "mmHg",
              "system": "http://unitsofmeasure.org",
              "code": "mm[Hg]"
            }
          }
        ],
        "expressedBy": {
          "reference": "Practitioner/P0522-v5-Practitioner-JohnSmith"
        },
        "addresses": [
          {
            "reference": "Condition/P0522-v5-Prob-CKD",
            "display": "Chronic kidney disease"
          }
        ],
        "resourceType": "Goal"
      }
    },
    {
      "resource": {
        "id": "P0522-v5-mcc-service-exercise",
        "extension": [
          {
            "url": "http://hl7.org/fhir/StructureDefinition/resource-pertainsToGoal",
            "valueReference": {
              "reference": "Goal/P0522-v5-mcc-goal-exercise"
            }
          }
        ],
        "status": "active",
        "intent": "plan",
        "code": {
          "coding": [
            {
              "system": "http://snomed.info/sct",
              "code": "226029000",
              "display": "Exercises"
            }
          ],
          "text": "Exercise 30 minutes per day"
        },
        "subject": {
          "reference": "Patient/P0522-v5-patientBSJ1"
        },
        "occurrenceTiming": {
          "repeat": {
            "boundsPeriod": {
              "start": "2021-01-01",
              "end": "2022-01-01"
            },
            "frequency": 1,
            "period": 1,
            "periodUnit": "d"
          }
        },
        "requester": {
          "reference": "Practitioner/P0522-v5-Practitioner-JohnSmith",
          "display": "Dr. John Carlson, MD"
        },
        "performer": [
          {
            "reference": "Patient/P0522-v5-patientBSJ1"
          }
        ],
        "reasonReference": [
          {
            "reference": "Condition/P0522-v5-Prob-Diabetes"
          }
        ],
        "note": [
          {
            "text": "Walk daily at a comfortable pace for as long as you are able. Stop if you develop shortness of breath, chest pain, or palpatations."
          }
        ],
        "resourceType": "ServiceRequest"
      }
    },
    {
      "resource": {
        "id": "P0522-v5-mcc-service-edu-ckd",
        "status": "active",
        "intent": "plan",
        "code": {
          "coding": [
            {
              "system": "http://snomed.info/sct",
              "code": "408982008",
              "display": "Renal care education (procedure)"
            }
          ],
          "text": "Education on CKD management"
        },
        "subject": {
          "reference": "Patient/P0522-v5-patientBSJ1"
        },
        "authoredOn": "2022-04-18",
        "requester": {
          "reference": "Practitioner/P0522-v5-Practitioner-jones-vince"
        },
        "performer": [
          {
            "reference": "Practitioner/P0522-v5-Practitioner-smith-julie"
          }
        ],
        "reasonReference": [
          {
            "reference": "Condition/P0522-v5-Prob-CKD"
          }
        ],
        "resourceType": "ServiceRequest"
      }
    },
    {
      "resource": {
        "id": "P0522-v5-mcc-goal-lab-phos",
        "lifecycleStatus": "active",
        "achievementStatus": {
          "coding": [
            {
              "system": "http://terminology.hl7.org/CodeSystem/goal-achievement",
              "code": "in-progress",
              "display": "In Progress"
            }
          ],
          "text": "In Progress"
        },
        "priority": {
          "coding": [
            {
              "system": "http://terminology.hl7.org/CodeSystem/goal-priority",
              "code": "high-priority",
              "display": "High Priority"
            }
          ],
          "text": "high"
        },
        "description": {
          "text": "Phosphorus in blood"
        },
        "subject": {
          "reference": "Patient/P0522-v5-patientBSJ1"
        },
        "startDate": "2021-02-20",
        "target": [
          {
            "measure": {
              "coding": [
                {
                  "system": "http://loinc.org",
                  "code": "2777-1",
                  "display": "Phosphate [Mass/volume] in Serum or Plasma"
                }
              ],
              "text": "Serum phosphorus"
            },
            "detailRange": {
              "low": {
                "value": 2.5,
                "unit": "mg/dL",
                "system": "http://unitsofmeasure.org",
                "code": "mg/dL"
              },
              "high": {
                "value": 4.5,
                "unit": "mg/dL",
                "system": "http://unitsofmeasure.org",
                "code": "mg/dL"
              }
            }
          }
        ],
        "expressedBy": {
          "reference": "Practitioner/P0522-v5-Practitioner-jones-vince"
        },
        "addresses": [
          {
            "reference": "Condition/P0522-v5-Prob-CKD",
            "display": "Chronic kidney disease"
          }
        ],
        "note": [
          {
            "text": "Normal working kidneys can remove extra phosphorus in your blood. When you have chronic kidney disease (CKD), your kidneys cannot remove phosphorus very well. High phosphorus levels can cause damage to your body. Extra phosphorus causes body changes that pull calcium out of your bones, making them weak. High phosphorus and calcium levels also lead to dangerous calcium deposits in blood vessels, lungs, eyes, and heart. Phosphorus and calcium control are very important for your overall health."
          },
          {
            "text": "Source https://www.kidney.org/atoz/content/phosphorus"
          }
        ],
        "resourceType": "Goal"
      }
    }
  ],
  "resourceType": "Bundle"
}