{
  "type": "message",
  "entry": [
    {
      "resource": {
        "extension": [
          {
            "url": "https://github.com/Open-Health-Manager/patient-data-receipt-ig/StructureDefinition/AccountExtension",
            "valueString": "P0522-v5-patientBSJ1"
          }
        ],
        "eventUri": "urn:mitre:healthmanager:pdr",
        "source": {
          "endpoint": "http://sample.data.org/"
        },
        "resourceType": "MessageHeader"
      }
    },
    {
      "resource": {
        "id": "P0522-v5-SDOH-Consent",
        "meta": {
          "profile": [
            "http://hl7.org/fhir/us/sdoh-clinicalcare/StructureDefinition/SDOHCC-Consent"
          ]
        },
        "status": "active",
        "scope": {
          "coding": [
            {
              "system": "http://terminology.hl7.org/CodeSystem/consentscope",
              "code": "patient-privacy",
              "display": "Privacy Consent"
            }
          ]
        },
        "category": [
          {
            "coding": [
              {
                "system": "http://terminology.hl7.org/CodeSystem/v3-ActCode",
                "code": "IDSCL",
                "display": "information disclosure"
              }
            ]
          }
        ],
        "patient": {
          "reference": "Patient/P0522-v5-patientBSJ1"
        },
        "dateTime": "2022-05-03T11:50:26+00:00",
        "organization": [
          {
            "reference": "Organization/P0522-v5-org-HH-Sky-Harbor-Home-Health",
            "display": "Sky Harbor Home Health Services"
          }
        ],
        "sourceAttachment": {
          "contentType": "application/pdf",
          "data": "",
          "title": "Patient consent"
        },
        "policyRule": {
          "coding": [
            {
              "system": "http://terminology.hl7.org/CodeSystem/consentpolicycodes",
              "code": "hipaa-auth",
              "display": "HIPAA Authorization"
            }
          ]
        },
        "provision": {
          "actor": [
            {
              "role": {
                "coding": [
                  {
                    "system": "http://terminology.hl7.org/CodeSystem/v3-RoleClass",
                    "code": "PAT",
                    "display": "patient"
                  }
                ]
              },
              "reference": {
                "reference": "Patient/P0522-v5-patientBSJ1"
              }
            }
          ],
          "action": [
            {
              "coding": [
                {
                  "system": "http://terminology.hl7.org/CodeSystem/consentaction",
                  "code": "disclose",
                  "display": "Disclose"
                }
              ]
            }
          ]
        },
        "resourceType": "Consent"
      }
    },
    {
      "resource": {
        "id": "P0522-v5-SDOH-SR-Transport",
        "meta": {
          "profile": [
            "http://hl7.org/fhir/us/sdoh-clinicalcare/StructureDefinition/SDOHCC-Task"
          ]
        },
        "status": "completed",
        "intent": "order",
        "priority": "urgent",
        "code": {
          "coding": [
            {
              "system": "http://hl7.org/fhir/CodeSystem/task-code",
              "code": "fulfill",
              "display": "Fulfill the focal request"
            }
          ]
        },
        "description": "Provide Transportation",
        "focus": {
          "reference": "ServiceRequest/P0522-v5-SDOH-SR-Transport"
        },
        "for": {
          "reference": "Patient/P0522-v5-patientBSJ1",
          "display": "Betsy Smith-Johnson"
        },
        "authoredOn": "2022-05-04T12:45:28+00:00",
        "lastModified": "2022-05-04T12:50:33+00:00",
        "requester": {
          "reference": "Organization/P0522-v5-org-HH-Sky-Harbor-Home-Health",
          "display": "Sky Harbor Home Health Services"
        },
        "owner": {
          "reference": "Organization/P0522-v5-SDOH-Org-Planning",
          "display": "Support Planner Services LLC"
        },
        "note": [
          {
            "authorReference": {
              "reference": "Practitioner/P0522-v5-Practitioner-TamaraRodriguez",
              "display": "Tamara Rodriguez"
            },
            "time": "2022-05-04T12:45:28+00:00",
            "text": "Needs transportation on May 19, 2022 from home to 10 am doctor appointment and then back to home after appointment is concluded. Home: 111 Maple Court, San Antonio, TX 78212. Dr. John Smith’s location: Primary Care of Texas, Inc. 177 Deerfield St. San Antonio, TX, 78207."
          },
          {
            "authorReference": {
              "reference": "Practitioner/P0522-v5-Practitioner-eLTSS-planner-MarkPlanner",
              "display": "Mark Planner"
            },
            "time": "2022-05-04T12:47:16+00:00",
            "text": "Taxi to pick her up from her home address on May 19, 2021 at 9:25 am to bring her to the 10 am appointment.  Taxi can return to doctor’s office after she calls 210-111-2222 (Bill Driver) to let them know she is ready to return home."
          }
        ],
        "output": [
          {
            "type": {
              "coding": [
                {
                  "system": "http://hl7.org/fhir/us/sdoh-clinicalcare/CodeSystem/sdohcc-temporary-codes",
                  "code": "resulting-activity",
                  "display": "Resulting Activity"
                }
              ]
            },
            "valueCodeableConcept": {
              "text": "Transportation provided in time."
            }
          },
          {
            "type": {
              "coding": [
                {
                  "system": "http://hl7.org/fhir/us/sdoh-clinicalcare/CodeSystem/sdohcc-temporary-codes",
                  "code": "resulting-activity",
                  "display": "Resulting Activity"
                }
              ]
            },
            "valueReference": {
              "reference": "Procedure/P0522-v5-SDOH-Proc-Transport",
              "display": "Transportation by taxi (procedure) (715956002)"
            }
          }
        ],
        "resourceType": "Task"
      }
    },
    {
      "resource": {
        "id": "P0522-v5-SDOH-Prob-Transport",
        "meta": {
          "profile": [
            "http://hl7.org/fhir/us/sdoh-clinicalcare/StructureDefinition/SDOHCC-Condition"
          ]
        },
        "clinicalStatus": {
          "coding": [
            {
              "system": "http://terminology.hl7.org/CodeSystem/condition-clinical",
              "code": "active",
              "display": "Active"
            }
          ]
        },
        "verificationStatus": {
          "coding": [
            {
              "system": "http://terminology.hl7.org/CodeSystem/condition-ver-status",
              "code": "unconfirmed",
              "display": "Unconfirmed"
            }
          ]
        },
        "category": [
          {
            "coding": [
              {
                "system": "http://hl7.org/fhir/us/sdoh-clinicalcare/CodeSystem/SDOHCC-CodeSystemTemporaryCodes",
                "code": "transportation-insecurity",
                "display": "Transportation Insecurity"
              }
            ]
          },
          {
            "coding": [
              {
                "system": "http://hl7.org/fhir/us/core/CodeSystem/condition-category",
                "code": "problem-list-item",
                "display": "Problem List Item"
              }
            ]
          }
        ],
        "code": {
          "coding": [
            {
              "system": "http://hl7.org/fhir/sid/icd-10-cm",
              "code": "Z59.82",
              "display": "Transportation insecurity"
            },
            {
              "system": "http://snomed.info/sct",
              "code": "713458007",
              "display": "Lack of access to transportation (finding)"
            }
          ],
          "text": "No transportation available to visit a Provider"
        },
        "subject": {
          "reference": "Patient/P0522-v5-patientBSJ1",
          "display": "Betsy Smith-Johnson"
        },
        "onsetDateTime": "2021-05-07T00:00:00+00:00",
        "recorder": {
          "reference": "Practitioner/P0522-v5-Practitioner-TamaraRodriguez",
          "display": "Tamara Rodriguez"
        },
        "asserter": {
          "reference": "Patient/P0522-v5-patientBSJ1",
          "display": "Betsy Smith-Johnson"
        },
        "evidence": [
          {
            "code": [
              {
                "text": "Conversation with Patient"
              }
            ]
          }
        ],
        "resourceType": "Condition"
      }
    },
    {
      "resource": {
        "id": "P0522-v5-SDOH-Proc-Transport",
        "meta": {
          "profile": [
            "http://hl7.org/fhir/us/sdoh-clinicalcare/StructureDefinition/SDOHCC-Procedure"
          ]
        },
        "identifier": [
          {
            "system": "https://api.logicahealth.org/GravitySDOHCBRO/open",
            "value": "16997"
          }
        ],
        "basedOn": [
          {
            "reference": "ServiceRequest/P0522-v5-SDOH-SR-Transport"
          }
        ],
        "status": "completed",
        "category": {
          "coding": [
            {
              "system": "http://hl7.org/fhir/us/sdoh-clinicalcare/CodeSystem/SDOHCC-CodeSystemTemporaryCodes",
              "code": "transportation-insecurity",
              "display": "Transportation Insecurity"
            }
          ]
        },
        "code": {
          "coding": [
            {
              "system": "http://snomed.info/sct",
              "code": "715956002",
              "display": "Transportation by taxi (procedure)"
            }
          ]
        },
        "subject": {
          "reference": "Patient/P0522-v5-patientBSJ1",
          "display": "Betsy Smith-Johnson"
        },
        "performedDateTime": "2022-05-04T12:50:33+00:00",
        "reasonReference": [
          {
            "reference": "Condition/P0522-v5-SDOH-Prob-Transport",
            "display": "Transportation insecurity"
          }
        ],
        "resourceType": "Procedure"
      }
    },
    {
      "resource": {
        "id": "P0522-v5-SDOH-Org-Planning",
        "type": [
          {
            "coding": [
              {
                "system": "http://hl7.org/gravity/CodeSystem/sdohcc-temporary-organization-type-codes",
                "code": "cp",
                "display": "Coordination Platform"
              }
            ]
          }
        ],
        "name": "Support Planner Services LLC",
        "resourceType": "Organization"
      }
    },
    {
      "resource": {
        "id": "P0522-v5-SDOH-SR-Transport",
        "meta": {
          "profile": [
            "http://hl7.org/fhir/us/sdoh-clinicalcare/StructureDefinition/SDOHCC-ServiceRequest"
          ]
        },
        "status": "completed",
        "intent": "order",
        "category": [
          {
            "coding": [
              {
                "system": "http://hl7.org/fhir/us/sdoh-clinicalcare/CodeSystem/SDOHCC-CodeSystemTemporaryCodes",
                "code": "transportation-insecurity",
                "display": "Transportation Insecurity"
              }
            ]
          }
        ],
        "priority": "urgent",
        "code": {
          "coding": [
            {
              "system": "http://snomed.info/sct",
              "code": "428632005",
              "display": "Transportation request (procedure)"
            }
          ]
        },
        "subject": {
          "reference": "Patient/P0522-v5-patientBSJ1",
          "display": "Betsy Smith-Johnson"
        },
        "occurrenceDateTime": "2022-05-19T00:00:00+00:00",
        "authoredOn": "2022-05-04T12:45:28+00:00",
        "reasonReference": [
          {
            "reference": "Condition/P0522-v5-SDOH-Prob-Transport",
            "display": "Transportation insecurity"
          }
        ],
        "supportingInfo": [
          {
            "reference": "Consent/P0522-v5-SDOH-Consent",
            "display": "Privacy Consent"
          }
        ],
        "resourceType": "ServiceRequest"
      }
    }
  ],
  "resourceType": "Bundle"
}