{
  "type": "message",
  "entry": [
    {
      "resource": {
        "extension": [
          {
            "url": "https://github.com/Open-Health-Manager/patient-data-receipt-ig/StructureDefinition/AccountExtension",
            "valueString": "P0522-v5-patientBSJ1"
          }
        ],
        "eventUri": "urn:mitre:healthmanager:pdr",
        "source": {
          "endpoint": "http://sample.data.org/"
        },
        "resourceType": "MessageHeader"
      }
    },
    {
      "resource": {
        "id": "P0522-v5-mcc-diabetes-and-ckd-updated",
        "status": "active",
        "intent": "plan",
        "title": "Diabetes and CKD Care Plan - 2021 Updated",
        "description": "Care plan to optimize Type 2 Diabetes Mellitus control and slow the progression of Chronic Kidney Disease in 2021 Updated",
        "subject": {
          "reference": "Patient/P0522-v5-patientBSJ1"
        },
        "period": {
          "start": "2021-05-19"
        },
        "author": {
          "reference": "Practitioner/P0522-v5-Practitioner-JohnSmith"
        },
        "careTeam": [
          {
            "reference": "CareTeam/P0522-v5-mcc-team"
          }
        ],
        "addresses": [
          {
            "reference": "Condition/P0522-v5-Prob-CKD"
          },
          {
            "reference": "Condition/P0522-v5-Prob-Diabetes"
          }
        ],
        "goal": [
          {
            "reference": "Goal/P0522-v5-mcc-goal-bp"
          },
          {
            "reference": "Goal/P0522-v5-mcc-goal-lab-phos"
          },
          {
            "reference": "Goal/P0522-v5-mcc-goal-a1c"
          },
          {
            "reference": "Goal/P0522-v5-mcc-goal-carb-consistent-diet"
          },
          {
            "reference": "Goal/P0522-v5-mcc-goal-control-blood-sugars-with-meals"
          }
        ],
        "activity": [
          {
            "reference": {
              "reference": "ServiceRequest/P0522-v5-mcc-service-edu-ckd"
            }
          },
          {
            "reference": {
              "reference": "ServiceRequest/P0522-v5-mcc-service-edu-diet"
            }
          },
          {
            "reference": {
              "reference": "ServiceRequest/P0522-v5-mcc-service-exercise"
            }
          },
          {
            "reference": {
              "reference": "ServiceRequest/P0522-v5-mcc-service-steps"
            }
          }
        ],
        "resourceType": "CarePlan"
      }
    },
    {
      "resource": {
        "id": "P0522-v5-mcc-cond-difficulty-coping",
        "meta": {
          "profile": [
            "http://hl7.org/fhir/us/core/StructureDefinition/us-core-condition"
          ]
        },
        "clinicalStatus": {
          "coding": [
            {
              "system": "http://terminology.hl7.org/CodeSystem/condition-clinical",
              "code": "active"
            }
          ]
        },
        "verificationStatus": {
          "coding": [
            {
              "system": "http://terminology.hl7.org/CodeSystem/condition-ver-status",
              "code": "confirmed"
            }
          ]
        },
        "category": [
          {
            "coding": [
              {
                "system": "http://terminology.hl7.org/CodeSystem/condition-category",
                "code": "problem-list-item",
                "display": "Problem List Item"
              }
            ],
            "text": "Problem"
          }
        ],
        "code": {
          "coding": [
            {
              "system": "http://snomed.info/sct",
              "code": "18232000",
              "display": "Difficulty coping (finding)"
            }
          ],
          "text": "Lack of understanding or coping strategies for food options with new challenges encountered after recent stroke"
        },
        "subject": {
          "reference": "Patient/P0522-v5-patientBSJ1"
        },
        "onsetDateTime": "2021-05-19",
        "asserter": {
          "reference": "Practitioner/P0522-v5-Practitioner-JohnSmith"
        },
        "resourceType": "Condition"
      }
    },
    {
      "resource": {
        "id": "P0522-v5-mcc-proc-diabetic-education",
        "status": "completed",
        "code": {
          "coding": [
            {
              "system": "http://snomed.info/sct",
              "code": "11816003",
              "display": "Diet education (procedure)"
            }
          ],
          "text": "Diet counseling"
        },
        "subject": {
          "reference": "Patient/P0522-v5-patientBSJ1"
        },
        "performedDateTime": "2021-05-31T16:00:00-05:00",
        "performer": [
          {
            "actor": {
              "reference": "Practitioner/P0522-v5-Practitioner-estaban-felicity"
            }
          }
        ],
        "resourceType": "Procedure"
      }
    },
    {
      "resource": {
        "id": "P0522-v5-mcc-goal-carb-consistent-diet",
        "lifecycleStatus": "active",
        "achievementStatus": {
          "coding": [
            {
              "system": "http://terminology.hl7.org/CodeSystem/goal-achievement",
              "code": "in-progress",
              "display": "In Progress"
            }
          ],
          "text": "In Progress"
        },
        "priority": {
          "coding": [
            {
              "system": "http://terminology.hl7.org/CodeSystem/goal-priority",
              "code": "high-priority",
              "display": "High Priority"
            }
          ],
          "text": "high"
        },
        "description": {
          "text": "Keep a carb consistent diet consuming 45-60 gms of carbohydrates per meal"
        },
        "subject": {
          "reference": "Patient/P0522-v5-patientBSJ1"
        },
        "startDate": "2021-05-19",
        "target": [
          {
            "measure": {
              "coding": [
                {
                  "system": "http://loinc.org",
                  "code": "2339-0",
                  "display": "Glucose [Mass/volume] in Blood"
                }
              ],
              "text": "Glucose [Mass/volume] in Blood"
            },
            "detailQuantity": {
              "value": 180,
              "unit": "mg/dl",
              "system": "http://unitsofmeasure.org/",
              "code": "mg/dl"
            },
            "dueDate": "2021-11-19"
          }
        ],
        "expressedBy": {
          "reference": "Practitioner/P0522-v5-Practitioner-JohnSmith"
        },
        "addresses": [
          {
            "reference": "Condition/P0522-v5-mcc-cond-sdoh-nutrition"
          },
          {
            "reference": "Observation/P0522-v5-mcc-obs-knowledge-deficit"
          }
        ],
        "note": [
          {
            "text": "Betsy has been keeping a food diary logging what she eats at each meal. Generally, for breakfast and dinner the carb count is within the desired limits. She eats an egg and toast each morning, and a neighbor has been bringing over meals at night. However, Betsy’s carb count at lunch and across the afternoon is consistently above the desired limits as she often will have refined food products as a lunch/snack followed by soft drinks and other sugar containing beverages across the afternoon to provide calories as she is fatigued."
          }
        ],
        "resourceType": "Goal"
      }
    },
    {
      "resource": {
        "id": "P0522-v5-mcc-service-edu-diet",
        "status": "active",
        "intent": "plan",
        "code": {
          "coding": [
            {
              "system": "http://snomed.info/sct",
              "code": "11816003",
              "display": "Diet education (procedure)"
            }
          ],
          "text": "Diet counseling"
        },
        "subject": {
          "reference": "Patient/P0522-v5-patientBSJ1"
        },
        "requester": {
          "reference": "Practitioner/P0522-v5-Practitioner-JohnSmith"
        },
        "performer": [
          {
            "reference": "Practitioner/P0522-v5-Practitioner-estaban-felicity"
          }
        ],
        "reasonReference": [
          {
            "reference": "Condition/P0522-v5-Prob-Diabetes"
          },
          {
            "reference": "Condition/P0522-v5-Prob-CKD"
          }
        ],
        "resourceType": "ServiceRequest"
      }
    },
    {
      "resource": {
        "id": "P0522-v5-mcc-goal-control-blood-sugars-with-meals",
        "lifecycleStatus": "active",
        "achievementStatus": {
          "coding": [
            {
              "system": "http://terminology.hl7.org/CodeSystem/goal-achievement",
              "code": "in-progress",
              "display": "In Progress"
            }
          ],
          "text": "In Progress"
        },
        "priority": {
          "coding": [
            {
              "system": "http://terminology.hl7.org/CodeSystem/goal-priority",
              "code": "high-priority",
              "display": "High Priority"
            }
          ],
          "text": "high"
        },
        "description": {
          "text": "Control blood sugars within 1-2 hours after eating to < 180 mg/dl"
        },
        "subject": {
          "reference": "Patient/P0522-v5-patientBSJ1"
        },
        "startDate": "2021-05-19",
        "target": [
          {
            "measure": {
              "coding": [
                {
                  "system": "http://loinc.org",
                  "code": "2339-0",
                  "display": "Glucose [Mass/volume] in Blood"
                }
              ],
              "text": "Glucose [Mass/volume] in Blood"
            },
            "detailQuantity": {
              "value": 180,
              "unit": "mg/dl",
              "system": "http://unitsofmeasure.org/",
              "code": "mg/dl"
            },
            "dueDate": "2021-11-19"
          }
        ],
        "expressedBy": {
          "reference": "Practitioner/P0522-v5-Practitioner-JohnSmith"
        },
        "addresses": [
          {
            "reference": "Condition/P0522-v5-mcc-cond-sdoh-nutrition"
          },
          {
            "reference": "Condition/P0522-v5-mcc-cond-difficulty-coping"
          },
          {
            "reference": "Observation/P0522-v5-mcc-obs-knowledge-deficit"
          }
        ],
        "note": [
          {
            "text": "Regularly monitor A1C levels toward overall ideal goal of 6.0."
          }
        ],
        "resourceType": "Goal"
      }
    },
    {
      "resource": {
        "id": "P0522-v5-mcc-obs-diabetes-poorly-controlled",
        "status": "final",
        "category": [
          {
            "coding": [
              {
                "system": "http://terminology.hl7.org/CodeSystem/observation-category",
                "code": "exam"
              }
            ],
            "text": "exam"
          }
        ],
        "code": {
          "coding": [
            {
              "system": "http://snomed.info/sct",
              "code": "443694000",
              "display": "Type II diabetes mellitus poorly (finding)"
            }
          ],
          "text": "Type II diabetes mellitus poorly (finding)"
        },
        "subject": {
          "reference": "Patient/P0522-v5-patientBSJ1"
        },
        "effectiveDateTime": "2021-05-19",
        "performer": [
          {
            "reference": "Practitioner/P0522-v5-Practitioner-JohnSmith"
          }
        ],
        "valueCodeableConcept": {
          "coding": [
            {
              "system": "http://snomed.info/sct",
              "code": "129832003",
              "display": "Noncompliance with dietary regimen (finding)"
            }
          ]
        },
        "resourceType": "Observation"
      }
    },
    {
      "resource": {
        "id": "P0522-v5-mcc-proc-glucose-monitoring",
        "status": "completed",
        "code": {
          "coding": [
            {
              "system": "http://snomed.info/sct",
              "code": "698472009",
              "display": "Blood glucose monitoring (regime/therapy)"
            }
          ],
          "text": "Blood glucose monitoring (regime/therapy)"
        },
        "subject": {
          "reference": "Patient/P0522-v5-patientBSJ1"
        },
        "performedDateTime": "2021-05-31T16:00:00-05:00",
        "performer": [
          {
            "actor": {
              "reference": "Practitioner/P0522-v5-Practitioner-JacobHartwell"
            }
          }
        ],
        "resourceType": "Procedure"
      }
    },
    {
      "resource": {
        "id": "P0522-v5-mcc-cond-sdoh-nutrition",
        "meta": {
          "profile": [
            "http://hl7.org/fhir/us/core/StructureDefinition/us-core-condition"
          ]
        },
        "clinicalStatus": {
          "coding": [
            {
              "system": "http://terminology.hl7.org/CodeSystem/condition-clinical",
              "code": "active"
            }
          ]
        },
        "verificationStatus": {
          "coding": [
            {
              "system": "http://terminology.hl7.org/CodeSystem/condition-ver-status",
              "code": "confirmed"
            }
          ]
        },
        "category": [
          {
            "coding": [
              {
                "system": "http://loinc.org",
                "code": "LG41762-2",
                "display": "SocialDeterminantsOfHealth"
              }
            ],
            "text": "Social Determinants Of Health"
          }
        ],
        "code": {
          "coding": [
            {
              "system": "http://snomed.info/sct",
              "code": "445281000124101",
              "display": "Nutrition impaired due to limited access to healthful foods (finding)"
            }
          ],
          "text": "Nutrition impaired due to limited access to healthful foods"
        },
        "subject": {
          "reference": "Patient/P0522-v5-patientBSJ1"
        },
        "onsetDateTime": "2021-05-19",
        "asserter": {
          "reference": "Practitioner/P0522-v5-Practitioner-JohnSmith"
        },
        "resourceType": "Condition"
      }
    },
    {
      "resource": {
        "id": "P0522-v5-mcc-goal-a1c",
        "lifecycleStatus": "active",
        "achievementStatus": {
          "coding": [
            {
              "system": "http://terminology.hl7.org/CodeSystem/goal-achievement",
              "code": "in-progress",
              "display": "In Progress"
            }
          ],
          "text": "In Progress"
        },
        "priority": {
          "coding": [
            {
              "system": "http://terminology.hl7.org/CodeSystem/goal-priority",
              "code": "medium-priority",
              "display": "Medium Priority"
            }
          ],
          "text": "medium"
        },
        "description": {
          "text": "Stabilize Hemoglobin A1c"
        },
        "subject": {
          "reference": "Patient/P0522-v5-patientBSJ1"
        },
        "startDate": "2021-01-01",
        "target": [
          {
            "measure": {
              "coding": [
                {
                  "system": "http://loinc.org",
                  "code": "4548-4",
                  "display": "Hemoglobin A1c/Hemoglobin.total in Blood"
                }
              ],
              "text": "Hemoglobin A1c total in Blood"
            },
            "detailQuantity": {
              "value": 6,
              "unit": "%",
              "system": "http://unitsofmeasure.org/",
              "code": "%"
            }
          }
        ],
        "expressedBy": {
          "reference": "Practitioner/P0522-v5-Practitioner-JohnSmith"
        },
        "addresses": [
          {
            "reference": "Condition/P0522-v5-Prob-Diabetes",
            "display": "Type 2 diabetes mellitus"
          }
        ],
        "note": [
          {
            "text": "Regularly monitor A1C levels toward overall goal of 6.0."
          }
        ],
        "resourceType": "Goal"
      }
    },
    {
      "resource": {
        "id": "P0522-v5-mcc-proc-carb-counting",
        "status": "completed",
        "code": {
          "coding": [
            {
              "system": "http://snomed.info/sct",
              "code": "416576000",
              "display": "Carbohydrate counting (regime/therapy)"
            }
          ],
          "text": "Carbohydrate counting (regime/therapy)"
        },
        "subject": {
          "reference": "Patient/P0522-v5-patientBSJ1"
        },
        "performedDateTime": "2021-05-31T16:00:00-05:00",
        "performer": [
          {
            "actor": {
              "reference": "Practitioner/P0522-v5-Practitioner-estaban-felicity"
            }
          }
        ],
        "resourceType": "Procedure"
      }
    },
    {
      "resource": {
        "id": "P0522-v5-mcc-obs-lab-glucose",
        "meta": {
          "profile": [
            "http://hl7.org/fhir/us/core/StructureDefinition/us-core-observationresults"
          ]
        },
        "status": "final",
        "category": [
          {
            "coding": [
              {
                "system": "http://terminology.hl7.org/CodeSystem/observation-category",
                "code": "laboratory"
              }
            ],
            "text": "Laboratory"
          }
        ],
        "code": {
          "coding": [
            {
              "system": "http://loinc.org",
              "code": "2339-0",
              "display": "Glucose [Mass/volume] in Blood"
            }
          ]
        },
        "subject": {
          "reference": "Patient/P0522-v5-patientBSJ1"
        },
        "effectiveDateTime": "2021-05-19",
        "performer": [
          {
            "reference": "Practitioner/P0522-v5-Practitioner-JohnSmith"
          }
        ],
        "valueQuantity": {
          "value": 315,
          "unit": "mg/dL",
          "system": "http://unitsofmeasure.org/",
          "code": "mg/dL"
        },
        "referenceRange": [
          {
            "low": {
              "value": 61,
              "unit": "mg/dL",
              "system": "http://unitsofmeasure.org",
              "code": "mg/dL"
            },
            "high": {
              "value": 100,
              "unit": "mg/dL",
              "system": "http://unitsofmeasure.org",
              "code": "mg/dL"
            },
            "text": "61 to 100 mg/dL"
          }
        ],
        "resourceType": "Observation"
      }
    },
    {
      "resource": {
        "id": "P0522-v5-Enc-MCCCarePlanDiabetes",
        "meta": {
          "profile": [
            "http://hl7.org/fhir/us/core/StructureDefinition/us-core-encounter"
          ]
        },
        "status": "finished",
        "class": {
          "system": "http://terminology.hl7.org/CodeSystem/v3-ActCode",
          "code": "AMB",
          "display": "ambulatory"
        },
        "type": [
          {
            "coding": [
              {
                "system": "http://www.ama-assn.org/go/cpt",
                "code": "99201"
              }
            ],
            "text": "Office Visit"
          }
        ],
        "subject": {
          "reference": "Patient/P0522-v5-patientBSJ1"
        },
        "participant": [
          {
            "individual": {
              "reference": "PractitionerRole/P0522-v5-Role-IMMD-JohnSmith"
            }
          }
        ],
        "period": {
          "start": "2021-05-19T13:30:14-05:00",
          "end": "2021-05-19T14:00:14-05:00"
        },
        "location": [
          {
            "location": {
              "reference": "Location/P0522-v5-org-Loc-PC-Primary-Care-Texas"
            }
          }
        ],
        "resourceType": "Encounter"
      }
    },
    {
      "resource": {
        "id": "P0522-v5-mcc-obs-knowledge-deficit",
        "status": "final",
        "category": [
          {
            "coding": [
              {
                "system": "http://terminology.hl7.org/CodeSystem/observation-category",
                "code": "exam"
              }
            ],
            "text": "exam"
          }
        ],
        "code": {
          "coding": [
            {
              "system": "http://snomed.info/sct",
              "code": "1148599007",
              "display": "Knowledge level of diet regime (observable entity)"
            }
          ],
          "text": "Limited knowledge level of diet regime"
        },
        "subject": {
          "reference": "Patient/P0522-v5-patientBSJ1"
        },
        "effectiveDateTime": "2022-04-10",
        "performer": [
          {
            "reference": "Practitioner/P0522-v5-Practitioner-JohnSmith"
          }
        ],
        "valueCodeableConcept": {
          "coding": [
            {
              "system": "http://snomed.info/sct",
              "code": "255469002",
              "display": "Limited (qualifier value)"
            }
          ]
        },
        "resourceType": "Observation"
      }
    }
  ],
  "resourceType": "Bundle"
}