{
  "type": "message",
  "entry": [
    {
      "resource": {
        "extension": [
          {
            "url": "https://github.com/Open-Health-Manager/patient-data-receipt-ig/StructureDefinition/AccountExtension",
            "valueString": "P0522-patientBSJ1"
          }
        ],
        "eventUri": "urn:mitre:healthmanager:pdr",
        "source": {
          "endpoint": "http://sample.data.org/"
        },
        "resourceType": "MessageHeader"
      }
    },
    {
      "resource": {
        "id": "P0522-ADIMMD-2021LWPOA-Bundle",
        "meta": {
          "versionId": "1",
          "lastUpdated": "2022-04-26T16:56:17.000+00:00",
          "source": "#cVfy5mUwhSVuFuNG"
        },
        "type": "document",
        "entry": [
          {
            "resource": {
              "id": "0e344056-a116-4e38-921a-65a6119fbdd7",
              "identifier": {
                "system": "urn:oid:2.16.840.1.113883.3.3208.101.3.8.1",
                "value": "4190-87f37989294a408897aacd1fc5d8fd16-00"
              },
              "status": "final",
              "type": {
                "coding": [
                  {
                    "system": "http://loinc.org",
                    "code": "81334-5",
                    "display": "Combined Living Will and Medical Power of Attorney"
                  }
                ]
              },
              "category": [
                {
                  "coding": [
                    {
                      "system": "http://loinc.org",
                      "code": "42348-3",
                      "display": "Advance directives"
                    }
                  ]
                }
              ],
              "subject": {
                "reference": "Patient/P0522-patientBSJ1",
                "display": "Smith-Johnson, Betsy"
              },
              "date": "2021-12-17T18:15:34+00:00",
              "author": [
                {
                  "reference": "Patient/P0522-patientBSJ1",
                  "display": "Smith-Johnson, Betsy"
                },
                {
                  "reference": "Device/P0522-ADIMMD-PortalDevice",
                  "display": "ADVault RR Portal"
                }
              ],
              "title": "Betsy's Adv Directive (Michigan)",
              "confidentiality": "N",
              "custodian": {
                "reference": "Organization/P0522-ADIMMD-ADVaultOrg"
              },
              "resourceType": "Composition"
            }
          },
          {
            "resource": {
              "id": "P0522-patientBSJ1",
              "meta": {
                "profile": [
                  "http://hl7.org/fhir/us/core/StructureDefinition/us-core-patient"
                ]
              },
              "extension": [
                {
                  "extension": [
                    {
                      "url": "ombCategory",
                      "valueCoding": {
                        "system": "urn:oid:2.16.840.1.113883.6.238",
                        "code": "2106-3",
                        "display": "White"
                      }
                    }
                  ],
                  "url": "http://hl7.org/fhir/us/core/StructureDefinition/us-core-race"
                },
                {
                  "extension": [
                    {
                      "url": "ombCategory",
                      "valueCoding": {
                        "system": "urn:oid:2.16.840.1.113883.6.238",
                        "code": "2186-5",
                        "display": "Not Hispanic or Latino"
                      }
                    }
                  ],
                  "url": "http://hl7.org/fhir/us/core/StructureDefinition/us-core-ethnicity"
                }
              ],
              "identifier": [
                {
                  "use": "usual",
                  "type": {
                    "coding": [
                      {
                        "system": "http://terminology.hl7.org/CodeSystem/v2-0203",
                        "code": "MR",
                        "display": "Medical Record Number"
                      }
                    ]
                  },
                  "system": "http://hl7.org/fhir/sid/us-medicare",
                  "value": "10A3D58WH1600"
                },
                {
                  "system": "urn:mitre:healthmanager:account:username",
                  "value": "P0522-patientBSJ1"
                }
              ],
              "active": true,
              "name": [
                {
                  "text": "Betsy Smith-Johnson",
                  "family": "Smith-Johnson",
                  "given": [
                    "Betsy"
                  ]
                }
              ],
              "telecom": [
                {
                  "system": "phone",
                  "value": "210-222-1111",
                  "use": "mobile"
                }
              ],
              "gender": "female",
              "birthDate": "1950-11-01",
              "address": [
                {
                  "text": "111 Maple Ct, San Antonio, TX 78212",
                  "line": [
                    "111 Maple Ct"
                  ],
                  "city": "San Antonio",
                  "district": "Bexar",
                  "state": "TX",
                  "postalCode": "78212"
                }
              ],
              "maritalStatus": {
                "coding": [
                  {
                    "system": "http://terminology.hl7.org/CodeSystem/v3-MaritalStatus",
                    "code": "U",
                    "display": "unmarried"
                  }
                ],
                "text": "Not married"
              },
              "contact": [
                {
                  "relationship": [
                    {
                      "coding": [
                        {
                          "system": "http://terminology.hl7.org/CodeSystem/v3-RoleCode",
                          "code": "SONC",
                          "display": "Son"
                        }
                      ]
                    },
                    {
                      "coding": [
                        {
                          "system": "http://hl7.org/fhir/v2/0131",
                          "code": "C",
                          "display": "Emergency Contact"
                        }
                      ]
                    },
                    {
                      "coding": [
                        {
                          "system": "http://terminology.hl7.org/CodeSystem/v3-RoleCode",
                          "code": "GUARD",
                          "display": "Guardian"
                        }
                      ]
                    }
                  ],
                  "name": {
                    "text": "Charles Johnson",
                    "family": "Johnson",
                    "given": [
                      "Charles"
                    ]
                  },
                  "telecom": [
                    {
                      "system": "phone",
                      "value": "(210) 222-3333"
                    }
                  ],
                  "address": {
                    "text": "100 Montana St., San Antonio, TX 78203"
                  }
                },
                {
                  "relationship": [
                    {
                      "coding": [
                        {
                          "system": "http://terminology.hl7.org/CodeSystem/v3-RoleCode",
                          "code": "DAUC",
                          "display": "Daughter"
                        }
                      ]
                    }
                  ],
                  "name": {
                    "text": "Debra Johnson",
                    "family": "Johnson",
                    "given": [
                      "Debra"
                    ]
                  },
                  "telecom": [
                    {
                      "system": "phone",
                      "value": "(410) 444-5555"
                    }
                  ],
                  "address": {
                    "text": "333 W. Camden St., Baltimore, MD 21201"
                  }
                }
              ],
              "communication": [
                {
                  "language": {
                    "coding": [
                      {
                        "system": "urn:oid:2.16.840.1.113883.1.11.11526",
                        "code": "en",
                        "display": "English"
                      }
                    ],
                    "text": "US"
                  },
                  "preferred": true
                }
              ],
              "generalPractitioner": [
                {
                  "reference": "Practitioner/P0522-Practitioner-JohnSmith"
                }
              ],
              "resourceType": "Patient"
            }
          },
          {
            "resource": {
              "id": "P0522-ADIMMD-ADVaultOrg",
              "identifier": [
                {
                  "system": "urn:oid:1.3.6.1.4.1.42424242.4.99930.4",
                  "value": "12c5dcee5089494ca1ca0cb428ed3fff"
                }
              ],
              "name": "ADVault, Inc.",
              "telecom": [
                {
                  "system": "phone",
                  "value": "+1(202)776-7700",
                  "use": "work"
                }
              ],
              "address": [
                {
                  "use": "work",
                  "line": [
                    "740 E. Campbell Rd.",
                    "STE 825"
                  ],
                  "city": "Richardson",
                  "state": "TX",
                  "postalCode": "75081",
                  "country": "US"
                }
              ],
              "endpoint": [
                {
                  "reference": "Endpoint/cbcfaefe-83f5-40bf-a56e-df9f05521930"
                }
              ],
              "resourceType": "Organization"
            }
          },
          {
            "resource": {
              "id": "P0522-ADIMMD-PortalDevice",
              "identifier": [
                {
                  "system": "urn:oid:2.16.840.1.113883.4.6",
                  "value": "ed6f4f50c6cb47dd89cb5d8f3007ecb0"
                }
              ],
              "modelNumber": "ADVault RR Portal",
              "version": [
                {
                  "value": "1.0"
                }
              ],
              "owner": {
                "reference": "Organization/P0522-ADIMMD-ADVaultOrg",
                "display": "ADVault, Inc."
              },
              "resourceType": "Device"
            }
          }
        ],
        "resourceType": "Bundle"
      }
    },
    {
      "resource": {
        "id": "P0522-ADIMMD-2021LWPOA-BinaryCDA",
        "meta": {
          "versionId": "1",
          "lastUpdated": "2022-04-26T16:56:07.000+00:00",
          "source": "#rOHbTn8XnkGT3EQj"
        },
        "contentType": "text/xml",
        "data": "",
        "resourceType": "Binary"
      }
    },
    {
      "resource": {
        "id": "P0522-ADIMMD-2021LWPOA-Comp",
        "meta": {
          "versionId": "1",
          "lastUpdated": "2022-04-26T16:56:17.000+00:00",
          "source": "#cVfy5mUwhSVuFuNG",
          "profile": [
            "http://hl7.org/fhir/us/pacio-adi/StructureDefinition/PADI-PACPComposition"
          ]
        },
        "identifier": {
          "system": "urn:oid:2.16.840.1.113883.3.3208.101.3.8.1",
          "value": "4190-87f37989294a408897aacd1fc5d8fd16-00"
        },
        "status": "final",
        "type": {
          "coding": [
            {
              "system": "http://loinc.org",
              "code": "81334-5",
              "display": "Combined Living Will and Medical Power of Attorney"
            }
          ]
        },
        "category": [
          {
            "coding": [
              {
                "system": "http://loinc.org",
                "code": "42348-3",
                "display": "Advance directives"
              }
            ]
          }
        ],
        "subject": {
          "reference": "Patient/P0522-patientBSJ1",
          "display": "Smith-Johnson, Betsy"
        },
        "date": "2021-12-17T18:15:34+00:00",
        "author": [
          {
            "reference": "Patient/P0522-patientBSJ1",
            "display": "Smith-Johnson, Betsy"
          },
          {
            "reference": "Device/P0522-ADIMMD-PortalDevice",
            "display": "ADVault RR Portal"
          }
        ],
        "title": "Betsy's Adv Directive (Michigan)",
        "confidentiality": "N",
        "custodian": {
          "reference": "Organization/P0522-ADIMMD-ADVaultOrg"
        },
        "resourceType": "Composition"
      }
    },
    {
      "resource": {
        "id": "P0522-ADIMMD-2021LWPOA-BinaryBundle",
        "meta": {
          "versionId": "1",
          "lastUpdated": "2022-04-26T16:56:17.000+00:00",
          "source": "#cVfy5mUwhSVuFuNG"
        },
        "contentType": "application/json",
        "data": "",
        "resourceType": "Binary"
      }
    },
    {
      "resource": {
        "id": "P0522-ADIMMD-2021LWPOA-DocRef",
        "meta": {
          "versionId": "1",
          "lastUpdated": "2022-04-26T16:56:17.000+00:00",
          "source": "#cVfy5mUwhSVuFuNG"
        },
        "masterIdentifier": {
          "system": "ClinicalDocument.id",
          "value": "2.16.840.1.113883.3.3208.101.3.8.1:4190-87f37989294a408897aacd1fc5d8fd16-00"
        },
        "identifier": [
          {
            "system": "ClinicalDocument.id",
            "value": "2.16.840.1.113883.3.3208.101.3.8.1:4190-87f37989294a408897aacd1fc5d8fd16-00"
          },
          {
            "system": "Binary.id",
            "value": "P0522-ADIMMD-2021LWPOA-BinaryCDA"
          },
          {
            "system": "ClinicalDocument.setid",
            "value": "2.16.840.1.113883.4.823.1.8124:4190-87f37989294a408897aacd1fc5d8fd16"
          }
        ],
        "status": "current",
        "docStatus": "final",
        "type": {
          "coding": [
            {
              "system": "http://loinc.org",
              "code": "81334-5",
              "display": "Combined Living Will and Medical Power of Attorney"
            }
          ]
        },
        "category": [
          {
            "coding": [
              {
                "system": "http://loinc.org",
                "code": "75320-2",
                "display": "Advance Directive"
              }
            ]
          }
        ],
        "subject": {
          "reference": "Patient/P0522-patientBSJ1",
          "display": "Smith-Johnson, Betsy"
        },
        "date": "2021-12-17T18:15:34.000+00:00",
        "author": [
          {
            "reference": "Patient/P0522-patientBSJ1",
            "display": "Smith-Johnson, Betsy"
          },
          {
            "reference": "Device/P0522-ADIMMD-PortalDevice",
            "display": "ADVault RR Portal"
          }
        ],
        "authenticator": {
          "reference": "Organization/P0522-ADIMMD-ADVaultOrg"
        },
        "custodian": {
          "reference": "Organization/P0522-ADIMMD-ADVaultOrg"
        },
        "description": "Betsy's Adv Directive (Michigan)",
        "securityLabel": [
          {
            "coding": [
              {
                "system": "http://hl7.org/fhir/v3/Confidentiality",
                "code": "N",
                "display": "normal"
              }
            ]
          }
        ],
        "content": [
          {
            "attachment": {
              "contentType": "text/xml",
              "url": "Binary/P0522-ADIMMD-2021LWPOA-BinaryCDA"
            },
            "format": {
              "system": "http://ihe.net/fhir/ValueSet/IHE.FormatCode.codesystem",
              "code": "urn:hl7-org:sdwg:pacp-structuredBody:1.2.0.1",
              "display": "PACA C-CDA"
            }
          },
          {
            "attachment": {
              "contentType": "application/json",
              "url": "Binary/P0522-ADIMMD-2021LWPOA-BinaryBundle"
            },
            "format": {
              "system": "http://ihe.net/fhir/ValueSet/IHE.FormatCode.codesystem",
              "code": "urn:hl7-org:sdwg:ccda-on-fhir-json:1.0",
              "display": "FHIR Document Bundle"
            }
          },
          {
            "attachment": {
              "url": "Composition/P0522-ADIMMD-2021LWPOA-Comp"
            }
          },
          {
            "attachment": {
              "url": "Bundle/P0522-ADIMMD-2021LWPOA-Bundle"
            },
            "format": {
              "system": "http://ihe.net/fhir/ValueSet/IHE.FormatCode.codesystem",
              "code": "urn:hl7-org:sdwg:ccda-on-fhir-json:1.0",
              "display": "FHIR Document Bundle"
            }
          }
        ],
        "resourceType": "DocumentReference"
      }
    }
  ],
  "resourceType": "Bundle"
}