{
  "type": "transaction",
  "entry": [
    {
      "fullUrl": "Observation/FPIG-CSC-SNF-PHQ9-1-Ob-Question-16",
      "resource": {
        "id": "FPIG-CSC-SNF-PHQ9-1-Ob-Question-16",
        "meta": {
          "profile": [
            "http://hl7.org/fhir/us/pacio-fp/StructureDefinition/fp-observation"
          ]
        },
        "extension": [
          {
            "url": "http://hl7.org/fhir/us/pacio-fp/StructureDefinition/event-location",
            "valueReference": {
              "reference": "Location/FPIG-Org-Loc-03"
            }
          }
        ],
        "status": "final",
        "category": [
          {
            "coding": [
              {
                "system": "http://hl7.org/fhir/us/pacio-fp/CodeSystem/fp-functioning-cs",
                "code": "functioning",
                "display": "Functioning"
              }
            ]
          },
          {
            "coding": [
              {
                "system": "http://terminology.hl7.org/CodeSystem/observation-category",
                "code": "survey"
              }
            ]
          }
        ],
        "code": {
          "coding": [
            {
              "system": "http://loinc.org",
              "code": "54641-6",
              "display": "Trouble falling or staying asleep, or sleeping too much in last 2 weeks.frequency [Reported PHQ-9 CMS]"
            }
          ]
        },
        "subject": {
          "reference": "Patient/FPIG-patientBSJ1"
        },
        "effectiveDateTime": "2020-07-11T11:30:00-05:00",
        "performer": [
          {
            "reference": "PractitionerRole/FPIG-Role-SLP-LunaBaskins"
          }
        ],
        "valueCodeableConcept": {
          "coding": [
            {
              "system": "http://loinc.org",
              "code": "LA10998-5",
              "display": "2-6 days (several days)"
            }
          ]
        },
        "derivedFrom": [
          {
            "reference": "QuestionnaireResponse/FPIG-QResponse-SNF-PHQ9-1"
          }
        ],
        "resourceType": "Observation"
      },
      "request": {
        "method": "PUT",
        "url": "Observation/FPIG-CSC-SNF-PHQ9-1-Ob-Question-16"
      }
    },
    {
      "fullUrl": "Location/FPIG-provider-org-loc-01",
      "resource": {
        "id": "FPIG-provider-org-loc-01",
        "status": "active",
        "name": "Primary Care INC.",
        "address": {
          "text": "177 Deerfield St. San Antonio, TX 78207"
        },
        "resourceType": "Location"
      },
      "request": {
        "method": "PUT",
        "url": "Location/FPIG-provider-org-loc-01"
      }
    },
    {
      "fullUrl": "PractitionerRole/FPIG-provider-role-neurologist",
      "resource": {
        "id": "FPIG-provider-role-neurologist",
        "active": true,
        "organization": {
          "reference": "Organization/FPIG-provider-org-16"
        },
        "code": [
          {
            "coding": [
              {
                "system": "http://nucc.org/provider-taxonomy",
                "code": "2084N0400X",
                "display": "Neurology Physician"
              }
            ]
          }
        ],
        "location": [
          {
            "reference": "Location/FPIG-provider-org-loc-16"
          }
        ],
        "resourceType": "PractitionerRole"
      },
      "request": {
        "method": "PUT",
        "url": "PractitionerRole/FPIG-provider-role-neurologist"
      }
    },
    {
      "fullUrl": "Observation/FPIG-CSC-SNF-BIMS-1-Ob-Question-8",
      "resource": {
        "id": "FPIG-CSC-SNF-BIMS-1-Ob-Question-8",
        "meta": {
          "profile": [
            "http://hl7.org/fhir/us/pacio-fp/StructureDefinition/fp-observation"
          ]
        },
        "extension": [
          {
            "url": "http://hl7.org/fhir/us/pacio-fp/StructureDefinition/event-location",
            "valueReference": {
              "reference": "Location/FPIG-Org-Loc-02"
            }
          }
        ],
        "status": "final",
        "category": [
          {
            "coding": [
              {
                "system": "http://hl7.org/fhir/us/pacio-fp/CodeSystem/fp-functioning-cs",
                "code": "functioning",
                "display": "Functioning"
              }
            ]
          },
          {
            "coding": [
              {
                "system": "http://terminology.hl7.org/CodeSystem/observation-category",
                "code": "survey"
              }
            ]
          }
        ],
        "code": {
          "coding": [
            {
              "system": "http://loinc.org",
              "code": "52736-6",
              "display": "Recall - blue [BIMS]"
            }
          ]
        },
        "subject": {
          "reference": "Patient/FPIG-patientBSJ1"
        },
        "effectiveDateTime": "2020-07-11T11:30:00-05:00",
        "performer": [
          {
            "reference": "PractitionerRole/FPIG-Role-SLP-HoneyJones"
          }
        ],
        "valueCodeableConcept": {
          "coding": [
            {
              "system": "http://loinc.org",
              "code": "LA10978-7",
              "display": "Yes, after cueing ('a color')"
            }
          ]
        },
        "derivedFrom": [
          {
            "reference": "QuestionnaireResponse/FPIG-QResponse-SNF-BIMS-1"
          }
        ],
        "resourceType": "Observation"
      },
      "request": {
        "method": "PUT",
        "url": "Observation/FPIG-CSC-SNF-BIMS-1-Ob-Question-8"
      }
    },
    {
      "fullUrl": "Organization/FPIG-Org-02",
      "resource": {
        "id": "FPIG-Org-02",
        "name": "Happy Nursing Facility",
        "resourceType": "Organization"
      },
      "request": {
        "method": "PUT",
        "url": "Organization/FPIG-Org-02"
      }
    },
    {
      "fullUrl": "Observation/FPIG-CSC-Hospital-MMSE-1-Ob-Question-31",
      "resource": {
        "id": "FPIG-CSC-Hospital-MMSE-1-Ob-Question-31",
        "meta": {
          "profile": [
            "http://hl7.org/fhir/us/pacio-fp/StructureDefinition/fp-observation"
          ]
        },
        "extension": [
          {
            "url": "http://hl7.org/fhir/us/pacio-fp/StructureDefinition/event-location",
            "valueReference": {
              "reference": "Location/FPIG-Org-Loc-01"
            }
          }
        ],
        "status": "final",
        "category": [
          {
            "coding": [
              {
                "system": "http://hl7.org/fhir/us/pacio-fp/CodeSystem/fp-functioning-cs",
                "code": "functioning",
                "display": "Functioning"
              }
            ]
          },
          {
            "coding": [
              {
                "system": "http://terminology.hl7.org/CodeSystem/observation-category",
                "code": "survey"
              }
            ]
          }
        ],
        "code": {
          "coding": [
            {
              "system": "http://loinc.org",
              "code": "72106-8",
              "display": "Total score [MMSE]"
            }
          ]
        },
        "subject": {
          "reference": "Patient/FPIG-patientBSJ1"
        },
        "effectiveDateTime": "2020-07-08T17:32:00-05:00",
        "performer": [
          {
            "reference": "PractitionerRole/FPIG-Role-SLP-JennyGlass"
          }
        ],
        "valueQuantity": {
          "value": 20,
          "system": "http://unitsofmeasure.org",
          "code": "{score}"
        },
        "derivedFrom": [
          {
            "reference": "QuestionnaireResponse/FPIG-QResponse-Hospital-MMSE-1"
          }
        ],
        "resourceType": "Observation"
      },
      "request": {
        "method": "PUT",
        "url": "Observation/FPIG-CSC-Hospital-MMSE-1-Ob-Question-31"
      }
    },
    {
      "fullUrl": "Observation/FPIG-CSC-SNF-CAM-Admission-1-Ob-Question-5",
      "resource": {
        "id": "FPIG-CSC-SNF-CAM-Admission-1-Ob-Question-5",
        "meta": {
          "profile": [
            "http://hl7.org/fhir/us/pacio-fp/StructureDefinition/fp-observation"
          ]
        },
        "extension": [
          {
            "url": "http://hl7.org/fhir/us/pacio-fp/StructureDefinition/event-location",
            "valueReference": {
              "reference": "Location/FPIG-Org-Loc-02"
            }
          }
        ],
        "status": "final",
        "category": [
          {
            "coding": [
              {
                "system": "http://hl7.org/fhir/us/pacio-fp/CodeSystem/fp-functioning-cs",
                "code": "functioning",
                "display": "Functioning"
              }
            ]
          },
          {
            "coding": [
              {
                "system": "http://terminology.hl7.org/CodeSystem/observation-category",
                "code": "survey"
              }
            ]
          }
        ],
        "code": {
          "coding": [
            {
              "system": "http://loinc.org",
              "code": "54629-1",
              "display": "Disorganized thinking in last 7 days [CAM.CMS]"
            }
          ]
        },
        "subject": {
          "reference": "Patient/FPIG-patientBSJ1"
        },
        "effectiveDateTime": "2020-04-09T18:00:00-05:00",
        "performer": [
          {
            "reference": "PractitionerRole/FPIG-Role-SLP-HoneyJones"
          }
        ],
        "valueCodeableConcept": {
          "coding": [
            {
              "system": "http://loinc.org",
              "code": "LA61-7",
              "display": "Behavior not present"
            }
          ]
        },
        "derivedFrom": [
          {
            "reference": "QuestionnaireResponse/FPIG-QResponse-SNF-CAM-Admission-1"
          }
        ],
        "resourceType": "Observation"
      },
      "request": {
        "method": "PUT",
        "url": "Observation/FPIG-CSC-SNF-CAM-Admission-1-Ob-Question-5"
      }
    },
    {
      "fullUrl": "PractitionerRole/FPIG-Role-SLP-LunaBaskins",
      "resource": {
        "id": "FPIG-Role-SLP-LunaBaskins",
        "active": true,
        "organization": {
          "reference": "Organization/FPIG-Org-03"
        },
        "code": [
          {
            "coding": [
              {
                "system": "http://snomed.info/sct",
                "code": "159026005",
                "display": "Speech and language therapist"
              }
            ]
          }
        ],
        "location": [
          {
            "reference": "Location/FPIG-Org-Loc-03"
          }
        ],
        "resourceType": "PractitionerRole"
      },
      "request": {
        "method": "PUT",
        "url": "PractitionerRole/FPIG-Role-SLP-LunaBaskins"
      }
    },
    {
      "fullUrl": "Observation/FPIG-CSC-SNF-PHQ9-1-Ob-Question-20",
      "resource": {
        "id": "FPIG-CSC-SNF-PHQ9-1-Ob-Question-20",
        "meta": {
          "profile": [
            "http://hl7.org/fhir/us/pacio-fp/StructureDefinition/fp-observation"
          ]
        },
        "extension": [
          {
            "url": "http://hl7.org/fhir/us/pacio-fp/StructureDefinition/event-location",
            "valueReference": {
              "reference": "Location/FPIG-Org-Loc-03"
            }
          }
        ],
        "status": "final",
        "category": [
          {
            "coding": [
              {
                "system": "http://hl7.org/fhir/us/pacio-fp/CodeSystem/fp-functioning-cs",
                "code": "functioning",
                "display": "Functioning"
              }
            ]
          },
          {
            "coding": [
              {
                "system": "http://terminology.hl7.org/CodeSystem/observation-category",
                "code": "survey"
              }
            ]
          }
        ],
        "code": {
          "coding": [
            {
              "system": "http://loinc.org",
              "code": "54645-7",
              "display": "Poor appetite or overeating in last 2 weeks.frequency [Reported PHQ-9 CMS]"
            }
          ]
        },
        "subject": {
          "reference": "Patient/FPIG-patientBSJ1"
        },
        "effectiveDateTime": "2020-07-11T11:30:00-05:00",
        "performer": [
          {
            "reference": "PractitionerRole/FPIG-Role-SLP-LunaBaskins"
          }
        ],
        "valueCodeableConcept": {
          "coding": [
            {
              "system": "http://loinc.org",
              "code": "LA10997-7",
              "display": "Never or 1 day"
            }
          ]
        },
        "derivedFrom": [
          {
            "reference": "QuestionnaireResponse/FPIG-QResponse-SNF-PHQ9-1"
          }
        ],
        "resourceType": "Observation"
      },
      "request": {
        "method": "PUT",
        "url": "Observation/FPIG-CSC-SNF-PHQ9-1-Ob-Question-20"
      }
    },
    {
      "fullUrl": "Observation/FPIG-CSC-SNF-BIMS-1-Ob-Question-4",
      "resource": {
        "id": "FPIG-CSC-SNF-BIMS-1-Ob-Question-4",
        "meta": {
          "profile": [
            "http://hl7.org/fhir/us/pacio-fp/StructureDefinition/fp-observation"
          ]
        },
        "extension": [
          {
            "url": "http://hl7.org/fhir/us/pacio-fp/StructureDefinition/event-location",
            "valueReference": {
              "reference": "Location/FPIG-Org-Loc-02"
            }
          }
        ],
        "status": "final",
        "category": [
          {
            "coding": [
              {
                "system": "http://hl7.org/fhir/us/pacio-fp/CodeSystem/fp-functioning-cs",
                "code": "functioning",
                "display": "Functioning"
              }
            ]
          },
          {
            "coding": [
              {
                "system": "http://terminology.hl7.org/CodeSystem/observation-category",
                "code": "survey"
              }
            ]
          }
        ],
        "code": {
          "coding": [
            {
              "system": "http://loinc.org",
              "code": "52732-5",
              "display": "Temporal orientation - current year [BIMS]"
            }
          ]
        },
        "subject": {
          "reference": "Patient/FPIG-patientBSJ1"
        },
        "effectiveDateTime": "2020-07-11T11:30:00-05:00",
        "performer": [
          {
            "reference": "PractitionerRole/FPIG-Role-SLP-HoneyJones"
          }
        ],
        "valueCodeableConcept": {
          "coding": [
            {
              "system": "http://loinc.org",
              "code": "LA10008-3",
              "display": "Missed by 1 year"
            }
          ]
        },
        "derivedFrom": [
          {
            "reference": "QuestionnaireResponse/FPIG-QResponse-SNF-BIMS-1"
          }
        ],
        "resourceType": "Observation"
      },
      "request": {
        "method": "PUT",
        "url": "Observation/FPIG-CSC-SNF-BIMS-1-Ob-Question-4"
      }
    },
    {
      "fullUrl": "Observation/FPIG-CSC-SNF-BIMS-1-Ob-Question-5",
      "resource": {
        "id": "FPIG-CSC-SNF-BIMS-1-Ob-Question-5",
        "meta": {
          "profile": [
            "http://hl7.org/fhir/us/pacio-fp/StructureDefinition/fp-observation"
          ]
        },
        "extension": [
          {
            "url": "http://hl7.org/fhir/us/pacio-fp/StructureDefinition/event-location",
            "valueReference": {
              "reference": "Location/FPIG-Org-Loc-02"
            }
          }
        ],
        "status": "final",
        "category": [
          {
            "coding": [
              {
                "system": "http://hl7.org/fhir/us/pacio-fp/CodeSystem/fp-functioning-cs",
                "code": "functioning",
                "display": "Functioning"
              }
            ]
          },
          {
            "coding": [
              {
                "system": "http://terminology.hl7.org/CodeSystem/observation-category",
                "code": "survey"
              }
            ]
          }
        ],
        "code": {
          "coding": [
            {
              "system": "http://loinc.org",
              "code": "52733-3",
              "display": "Temporal orientation - current month [BIMS]"
            }
          ]
        },
        "subject": {
          "reference": "Patient/FPIG-patientBSJ1"
        },
        "effectiveDateTime": "2020-07-11T11:30:00-05:00",
        "performer": [
          {
            "reference": "PractitionerRole/FPIG-Role-SLP-HoneyJones"
          }
        ],
        "valueCodeableConcept": {
          "coding": [
            {
              "system": "http://loinc.org",
              "code": "LA10010-9",
              "display": "Missed by 6 days to 1 month"
            }
          ]
        },
        "derivedFrom": [
          {
            "reference": "QuestionnaireResponse/FPIG-QResponse-SNF-BIMS-1"
          }
        ],
        "resourceType": "Observation"
      },
      "request": {
        "method": "PUT",
        "url": "Observation/FPIG-CSC-SNF-BIMS-1-Ob-Question-5"
      }
    },
    {
      "fullUrl": "Observation/FPIG-CSC-SNF-PHQ9-1-Ob-Question-21",
      "resource": {
        "id": "FPIG-CSC-SNF-PHQ9-1-Ob-Question-21",
        "meta": {
          "profile": [
            "http://hl7.org/fhir/us/pacio-fp/StructureDefinition/fp-observation"
          ]
        },
        "extension": [
          {
            "url": "http://hl7.org/fhir/us/pacio-fp/StructureDefinition/event-location",
            "valueReference": {
              "reference": "Location/FPIG-Org-Loc-03"
            }
          }
        ],
        "status": "final",
        "category": [
          {
            "coding": [
              {
                "system": "http://hl7.org/fhir/us/pacio-fp/CodeSystem/fp-functioning-cs",
                "code": "functioning",
                "display": "Functioning"
              }
            ]
          },
          {
            "coding": [
              {
                "system": "http://terminology.hl7.org/CodeSystem/observation-category",
                "code": "survey"
              }
            ]
          }
        ],
        "code": {
          "coding": [
            {
              "system": "http://loinc.org",
              "code": "54646-5",
              "display": "Feeling bad about yourself - or that you are a failure or have let yourself or your family down in last 2 weeks.presence [Reported PHQ-9 CMS]"
            }
          ]
        },
        "subject": {
          "reference": "Patient/FPIG-patientBSJ1"
        },
        "effectiveDateTime": "2020-07-11T11:30:00-05:00",
        "performer": [
          {
            "reference": "PractitionerRole/FPIG-Role-SLP-LunaBaskins"
          }
        ],
        "valueCodeableConcept": {
          "coding": [
            {
              "system": "http://loinc.org",
              "code": "LA32-8",
              "display": "No"
            }
          ]
        },
        "derivedFrom": [
          {
            "reference": "QuestionnaireResponse/FPIG-QResponse-SNF-PHQ9-1"
          }
        ],
        "resourceType": "Observation"
      },
      "request": {
        "method": "PUT",
        "url": "Observation/FPIG-CSC-SNF-PHQ9-1-Ob-Question-21"
      }
    },
    {
      "fullUrl": "PractitionerRole/FPIG-provider-role-pcp",
      "resource": {
        "id": "FPIG-provider-role-pcp",
        "active": true,
        "organization": {
          "reference": "Organization/FPIG-provider-org-01"
        },
        "code": [
          {
            "coding": [
              {
                "system": "http://nucc.org/provider-taxonomy",
                "code": "261QP2300X",
                "display": "Primary Care Clinic/Center"
              }
            ]
          }
        ],
        "location": [
          {
            "reference": "Location/FPIG-provider-org-loc-01"
          }
        ],
        "resourceType": "PractitionerRole"
      },
      "request": {
        "method": "PUT",
        "url": "PractitionerRole/FPIG-provider-role-pcp"
      }
    },
    {
      "fullUrl": "Organization/FPIG-Org-03",
      "resource": {
        "id": "FPIG-Org-03",
        "name": "Sky Harbor Home Health Services",
        "resourceType": "Organization"
      },
      "request": {
        "method": "PUT",
        "url": "Organization/FPIG-Org-03"
      }
    },
    {
      "fullUrl": "QuestionnaireResponse/FPIG-QResponse-SNF-PHQ9-1",
      "resource": {
        "id": "FPIG-QResponse-SNF-PHQ9-1",
        "meta": {
          "profile": [
            "http://hl7.org/fhir/uv/sdc/StructureDefinition/sdc-questionnaireresponse"
          ]
        },
        "text": {
          "status": "generated",
          "div": "<div xmlns=\"http://www.w3.org/1999/xhtml\"><p><b>Generated Narrative</b></p><p><b>questionnaire</b>: <a href=\"http://example.org/Questionnaire/MDS3.0-NC-1.17\">http://example.org/Questionnaire/MDS3.0-NC-1.17</a></p><p><b>status</b>: completed</p><p><b>subject</b>: <a href=\"Patient-patientBSJ1.html\">Generated Summary: Betsy Smith-Johnson</a></p><p><b>authored</b>: Jul 11, 2020 4:30:00 PM</p><p><b>author</b>: <a href=\"PractitionerRole-Role-SLP-LunaBaskins.html\">Generated Summary: active: true; <span title=\"Codes: {http://snomed.info/sct 159026005}\">Speech and language therapist</span></a></p><blockquote><p><b>item</b></p><p><b>linkId</b>: Section-4</p><p><b>text</b>: MDS v3.0 - RAI v1.18.1 - Mood - OSA [CMS Assessment]</p><blockquote><p><b>item</b></p><p><b>linkId</b>: Section-4/D0200</p><p><b>text</b>: Resident mood interview (PHQ-9) [Reported PHQ-9 CMS]</p></blockquote><blockquote><p><b>item</b></p><p><b>linkId</b>: Section-4/D0300</p><p><b>text</b>: PHQ-9 Total Score</p></blockquote></blockquote></div>"
        },
        "questionnaire": "http://example.org/Questionnaire/MDS3.0-NC-1.17",
        "status": "completed",
        "subject": {
          "reference": "Patient/FPIG-patientBSJ1"
        },
        "authored": "2020-07-11T11:30:00-05:00",
        "author": {
          "reference": "PractitionerRole/Role-SLP-LunaBaskins"
        },
        "item": [
          {
            "linkId": "Section-4",
            "text": "MDS v3.0 - RAI v1.18.1 - Mood - OSA [CMS Assessment]",
            "item": [
              {
                "linkId": "Section-4/D0200",
                "text": "Resident mood interview (PHQ-9) [Reported PHQ-9 CMS]",
                "item": [
                  {
                    "linkId": "Section-4/D0200_1",
                    "text": "Resident mood interview (PHQ-9) - symptom presence in the last 2 weeks [CMS Assessment]",
                    "item": [
                      {
                        "linkId": "Section-4/D0200A1",
                        "text": "Little interest or pleasure in doing things",
                        "answer": [
                          {
                            "valueCoding": {
                              "system": "http://loinc.org",
                              "code": "LA33-6",
                              "display": "Yes"
                            }
                          }
                        ]
                      },
                      {
                        "linkId": "Section-4/D0200B1",
                        "text": "Feeling down",
                        "answer": [
                          {
                            "valueCoding": {
                              "system": "http://loinc.org",
                              "code": "LA33-6",
                              "display": "Yes"
                            }
                          }
                        ]
                      },
                      {
                        "linkId": "Section-4/D0200C1",
                        "text": "Trouble falling or staying asleep",
                        "answer": [
                          {
                            "valueCoding": {
                              "system": "http://loinc.org",
                              "code": "LA33-6",
                              "display": "Yes"
                            }
                          }
                        ]
                      },
                      {
                        "linkId": "Section-4/D0200D1",
                        "text": "Feeling tired or having little energy",
                        "answer": [
                          {
                            "valueCoding": {
                              "system": "http://loinc.org",
                              "code": "LA32-8",
                              "display": "No"
                            }
                          }
                        ]
                      },
                      {
                        "linkId": "Section-4/D0200E1",
                        "text": "Poor appetite or overeating",
                        "answer": [
                          {
                            "valueCoding": {
                              "system": "http://loinc.org",
                              "code": "LA32-8",
                              "display": "No"
                            }
                          }
                        ]
                      },
                      {
                        "linkId": "Section-4/D0200F1",
                        "text": "Feeling bad about yourself - or that you are a failure or have let yourself or your family down",
                        "answer": [
                          {
                            "valueCoding": {
                              "system": "http://loinc.org",
                              "code": "LA32-8",
                              "display": "No"
                            }
                          }
                        ]
                      },
                      {
                        "linkId": "Section-4/D0200G1",
                        "text": "Trouble concentrating on things",
                        "answer": [
                          {
                            "valueCoding": {
                              "system": "http://loinc.org",
                              "code": "LA32-8",
                              "display": "No"
                            }
                          }
                        ]
                      },
                      {
                        "linkId": "Section-4/D0200H1",
                        "text": "Moving or speaking so slowly that other people could have noticed. Or the opposite - being so fidgety or restless that you have been moving around a lot more than usual",
                        "answer": [
                          {
                            "valueCoding": {
                              "system": "http://loinc.org",
                              "code": "LA32-8",
                              "display": "No"
                            }
                          }
                        ]
                      },
                      {
                        "linkId": "Section-4/D0200I1",
                        "text": "Thoughts that you would be better off dead",
                        "answer": [
                          {
                            "valueCoding": {
                              "system": "http://loinc.org",
                              "code": "LA10996-9",
                              "display": "No response"
                            }
                          }
                        ]
                      }
                    ]
                  },
                  {
                    "linkId": "Section-4/D0200_2",
                    "text": "Resident mood interview (PHQ-9) - symptom frequency in the last 2 weeks [CMS Assessment]",
                    "item": [
                      {
                        "linkId": "Section-4/D0200A2",
                        "text": "Little interest or pleasure in doing things",
                        "answer": [
                          {
                            "valueCoding": {
                              "system": "http://loinc.org",
                              "code": "LA10998-5",
                              "display": "2-6 days (several days)"
                            }
                          }
                        ]
                      },
                      {
                        "linkId": "Section-4/D0200B2",
                        "text": "Feeling down",
                        "answer": [
                          {
                            "valueCoding": {
                              "system": "http://loinc.org",
                              "code": "LA10998-5",
                              "display": "2-6 days (several days)"
                            }
                          }
                        ]
                      },
                      {
                        "linkId": "Section-4/D0200C2",
                        "text": "Trouble falling or staying asleep",
                        "answer": [
                          {
                            "valueCoding": {
                              "system": "http://loinc.org",
                              "code": "LA10998-5",
                              "display": "2-6 days (several days)"
                            }
                          }
                        ]
                      },
                      {
                        "linkId": "Section-4/D0200D2",
                        "text": "Feeling tired or having little energy",
                        "answer": [
                          {
                            "valueCoding": {
                              "system": "http://loinc.org",
                              "code": "LA10997-7",
                              "display": "Never or 1 day"
                            }
                          }
                        ]
                      },
                      {
                        "linkId": "Section-4/D0200E2",
                        "text": "Poor appetite or overeating",
                        "answer": [
                          {
                            "valueCoding": {
                              "system": "http://loinc.org",
                              "code": "LA10997-7",
                              "display": "Never or 1 day"
                            }
                          }
                        ]
                      },
                      {
                        "linkId": "Section-4/D0200F2",
                        "text": "Feeling bad about yourself - or that you are a failure or have let yourself or your family down",
                        "answer": [
                          {
                            "valueCoding": {
                              "system": "http://loinc.org",
                              "code": "LA10997-7",
                              "display": "Never or 1 day"
                            }
                          }
                        ]
                      },
                      {
                        "linkId": "Section-4/D0200G2",
                        "text": "Trouble concentrating on things",
                        "answer": [
                          {
                            "valueCoding": {
                              "system": "http://loinc.org",
                              "code": "LA10997-7",
                              "display": "Never or 1 day"
                            }
                          }
                        ]
                      },
                      {
                        "linkId": "Section-4/D0200H2",
                        "text": "Moving or speaking so slowly that other people could have noticed. Or the opposite - being so fidgety or restless that you have been moving around a lot more than usual",
                        "answer": [
                          {
                            "valueCoding": {
                              "system": "http://loinc.org",
                              "code": "LA10997-7",
                              "display": "Never or 1 day"
                            }
                          }
                        ]
                      },
                      {
                        "linkId": "Section-4/D0200I2",
                        "text": "Thoughts that you would be better off dead"
                      }
                    ]
                  }
                ]
              },
              {
                "linkId": "Section-4/D0300",
                "text": "PHQ-9 Total Score",
                "answer": [
                  {
                    "valueQuantity": {
                      "value": 3,
                      "system": "http://unitsofmeasure.org",
                      "code": "{score}"
                    }
                  }
                ]
              }
            ]
          }
        ],
        "resourceType": "QuestionnaireResponse"
      },
      "request": {
        "method": "PUT",
        "url": "QuestionnaireResponse/FPIG-QResponse-SNF-PHQ9-1"
      }
    },
    {
      "fullUrl": "Observation/FPIG-CSC-SNF-BIMS-1-Ob-Question-9",
      "resource": {
        "id": "FPIG-CSC-SNF-BIMS-1-Ob-Question-9",
        "meta": {
          "profile": [
            "http://hl7.org/fhir/us/pacio-fp/StructureDefinition/fp-observation"
          ]
        },
        "extension": [
          {
            "url": "http://hl7.org/fhir/us/pacio-fp/StructureDefinition/event-location",
            "valueReference": {
              "reference": "Location/FPIG-Org-Loc-02"
            }
          }
        ],
        "status": "final",
        "category": [
          {
            "coding": [
              {
                "system": "http://hl7.org/fhir/us/pacio-fp/CodeSystem/fp-functioning-cs",
                "code": "functioning",
                "display": "Functioning"
              }
            ]
          },
          {
            "coding": [
              {
                "system": "http://terminology.hl7.org/CodeSystem/observation-category",
                "code": "survey"
              }
            ]
          }
        ],
        "code": {
          "coding": [
            {
              "system": "http://loinc.org",
              "code": "52737-4",
              "display": "Recall - bed [BIMS]"
            }
          ]
        },
        "subject": {
          "reference": "Patient/FPIG-patientBSJ1"
        },
        "effectiveDateTime": "2020-07-11T11:30:00-05:00",
        "performer": [
          {
            "reference": "PractitionerRole/FPIG-Role-SLP-HoneyJones"
          }
        ],
        "valueCodeableConcept": {
          "coding": [
            {
              "system": "http://loinc.org",
              "code": "LA10125-5",
              "display": "Yes, after cueing ('a piece of furniture')"
            }
          ]
        },
        "derivedFrom": [
          {
            "reference": "QuestionnaireResponse/FPIG-QResponse-SNF-BIMS-1"
          }
        ],
        "resourceType": "Observation"
      },
      "request": {
        "method": "PUT",
        "url": "Observation/FPIG-CSC-SNF-BIMS-1-Ob-Question-9"
      }
    },
    {
      "fullUrl": "QuestionnaireResponse/FPIG-QResponse-SNF-CAM-Admission-1",
      "resource": {
        "id": "FPIG-QResponse-SNF-CAM-Admission-1",
        "meta": {
          "profile": [
            "http://hl7.org/fhir/uv/sdc/StructureDefinition/sdc-questionnaireresponse"
          ]
        },
        "text": {
          "status": "generated",
          "div": "<div xmlns=\"http://www.w3.org/1999/xhtml\"><p><b>Generated Narrative</b></p><p><b>questionnaire</b>: <a href=\"http://example.org/Questionnaire/MDS3.0-NC-1.17\">http://example.org/Questionnaire/MDS3.0-NC-1.17</a></p><p><b>status</b>: completed</p><p><b>subject</b>: <a href=\"Patient-patientBSJ1.html\">Generated Summary: Betsy Smith-Johnson</a></p><p><b>authored</b>: Apr 9, 2020 11:00:00 PM</p><blockquote><p><b>item</b></p><p><b>linkId</b>: Section-3</p><p><b>text</b>: Cognitive Patterns</p><blockquote><p><b>item</b></p><p><b>linkId</b>: Section-3/C1310</p><p><b>text</b>: Signs and Symptoms of Delirium (from CAM)</p></blockquote></blockquote></div>"
        },
        "questionnaire": "http://example.org/Questionnaire/MDS3.0-NC-1.17",
        "status": "completed",
        "subject": {
          "reference": "Patient/FPIG-patientBSJ1"
        },
        "authored": "2020-04-09T18:00:00-05:00",
        "item": [
          {
            "linkId": "Section-3",
            "text": "Cognitive Patterns",
            "item": [
              {
                "linkId": "Section-3/C1310",
                "text": "Signs and Symptoms of Delirium (from CAM)",
                "item": [
                  {
                    "linkId": "Section-3/C1310A",
                    "text": "Is there evidence of an acute change in mental status from the patients baseline?",
                    "answer": [
                      {
                        "valueCoding": {
                          "system": "http://loinc.org",
                          "code": "LA32-8",
                          "display": "No"
                        }
                      }
                    ]
                  },
                  {
                    "linkId": "Section-3/C1310B",
                    "text": "Did the patient have difficulty focusing attention, for example being easily distractible, or having difficulty keeping track of what was being said?",
                    "answer": [
                      {
                        "valueCoding": {
                          "system": "http://loinc.org",
                          "code": "LA61-7",
                          "display": "Behavior not present"
                        }
                      }
                    ]
                  },
                  {
                    "linkId": "Section-3/C1310C",
                    "text": "Did the resident have altered level of consiousness as indicated by any of the following criteria: (1) Vigilant - startles easily to any sound or touch, (2) Lethargic - repeatedly dozed off when being asked questions, but responded to voice or touch, (3) Stuporous - very difficult to arouse and keep aroused for the interview, (4) Comatose - could not be aroused",
                    "answer": [
                      {
                        "valueCoding": {
                          "system": "http://loinc.org",
                          "code": "LA61-7",
                          "display": "Behavior not present"
                        }
                      }
                    ]
                  }
                ]
              }
            ]
          }
        ],
        "resourceType": "QuestionnaireResponse"
      },
      "request": {
        "method": "PUT",
        "url": "QuestionnaireResponse/FPIG-QResponse-SNF-CAM-Admission-1"
      }
    },
    {
      "fullUrl": "Practitioner/Practitioner-JennyGlass",
      "resource": {
        "id": "Practitioner-JennyGlass",
        "active": true,
        "name": [
          {
            "text": "Jenny Glass",
            "family": "Glass",
            "given": [
              "Jenny"
            ]
          }
        ],
        "telecom": [
          {
            "system": "phone"
          }
        ],
        "gender": "female",
        "resourceType": "Practitioner"
      },
      "request": {
        "method": "PUT",
        "url": "Practitioner/Practitioner-JennyGlass"
      }
    },
    {
      "fullUrl": "Location/FPIG-provider-org-loc-16",
      "resource": {
        "id": "FPIG-provider-org-loc-16",
        "status": "active",
        "name": "Neuro Care INC.",
        "address": {
          "text": "26022 Meadowlark Bay, San Antonio, TX 78260"
        },
        "resourceType": "Location"
      },
      "request": {
        "method": "PUT",
        "url": "Location/FPIG-provider-org-loc-16"
      }
    },
    {
      "fullUrl": "Observation/FPIG-CSC-SNF-PHQ9-1-Ob-Question-17",
      "resource": {
        "id": "FPIG-CSC-SNF-PHQ9-1-Ob-Question-17",
        "meta": {
          "profile": [
            "http://hl7.org/fhir/us/pacio-fp/StructureDefinition/fp-observation"
          ]
        },
        "extension": [
          {
            "url": "http://hl7.org/fhir/us/pacio-fp/StructureDefinition/event-location",
            "valueReference": {
              "reference": "Location/FPIG-Org-Loc-03"
            }
          }
        ],
        "status": "final",
        "category": [
          {
            "coding": [
              {
                "system": "http://hl7.org/fhir/us/pacio-fp/CodeSystem/fp-functioning-cs",
                "code": "functioning",
                "display": "Functioning"
              }
            ]
          },
          {
            "coding": [
              {
                "system": "http://terminology.hl7.org/CodeSystem/observation-category",
                "code": "survey"
              }
            ]
          }
        ],
        "code": {
          "coding": [
            {
              "system": "http://loinc.org",
              "code": "54642-4",
              "display": "Feeling tired or having little energy in last 2 weeks.presence [Reported PHQ-9 CMS]"
            }
          ]
        },
        "subject": {
          "reference": "Patient/FPIG-patientBSJ1"
        },
        "effectiveDateTime": "2020-07-11T11:30:00-05:00",
        "performer": [
          {
            "reference": "PractitionerRole/FPIG-Role-SLP-LunaBaskins"
          }
        ],
        "valueCodeableConcept": {
          "coding": [
            {
              "system": "http://loinc.org",
              "code": "LA32-8",
              "display": "No"
            }
          ]
        },
        "derivedFrom": [
          {
            "reference": "QuestionnaireResponse/FPIG-QResponse-SNF-PHQ9-1"
          }
        ],
        "resourceType": "Observation"
      },
      "request": {
        "method": "PUT",
        "url": "Observation/FPIG-CSC-SNF-PHQ9-1-Ob-Question-17"
      }
    },
    {
      "fullUrl": "Location/FPIG-Org-Loc-03",
      "resource": {
        "id": "FPIG-Org-Loc-03",
        "status": "active",
        "name": "Sky Harbor Home Health Services",
        "address": {
          "text": "8810 Old Sky Harbor, San Antonio, TX 78242"
        },
        "resourceType": "Location"
      },
      "request": {
        "method": "PUT",
        "url": "Location/FPIG-Org-Loc-03"
      }
    },
    {
      "fullUrl": "DeviceUseStatement/FPIG-CSC-SNF-BIMS-1-UseOfDevice-1",
      "resource": {
        "id": "FPIG-CSC-SNF-BIMS-1-UseOfDevice-1",
        "meta": {
          "profile": [
            "http://hl7.org/fhir/us/pacio-fp/StructureDefinition/fp-use-of-device"
          ]
        },
        "status": "active",
        "subject": {
          "reference": "Patient/FPIG-patientBSJ1"
        },
        "derivedFrom": [
          {
            "reference": "Observation/FPIG-CSC-SNF-BIMS-1"
          }
        ],
        "recordedOn": "2020-07-11T11:30:00-05:00",
        "source": {
          "reference": "FPIG-Practitioner-HoneyJones"
        },
        "device": {
          "reference": "Device/FPIG-CMS-Device-Eyeglasses"
        },
        "resourceType": "DeviceUseStatement"
      },
      "request": {
        "method": "PUT",
        "url": "DeviceUseStatement/FPIG-CSC-SNF-BIMS-1-UseOfDevice-1"
      }
    },
    {
      "fullUrl": "Observation/FPIG-CSC-SNF-CAM-Admission-1-Ob-Question-3",
      "resource": {
        "id": "FPIG-CSC-SNF-CAM-Admission-1-Ob-Question-3",
        "meta": {
          "profile": [
            "http://hl7.org/fhir/us/pacio-fp/StructureDefinition/fp-observation"
          ]
        },
        "extension": [
          {
            "url": "http://hl7.org/fhir/us/pacio-fp/StructureDefinition/event-location",
            "valueReference": {
              "reference": "Location/FPIG-Org-Loc-02"
            }
          }
        ],
        "status": "final",
        "category": [
          {
            "coding": [
              {
                "system": "http://hl7.org/fhir/us/pacio-fp/CodeSystem/fp-functioning-cs",
                "code": "functioning",
                "display": "Functioning"
              }
            ]
          },
          {
            "coding": [
              {
                "system": "http://terminology.hl7.org/CodeSystem/observation-category",
                "code": "survey"
              }
            ]
          }
        ],
        "code": {
          "coding": [
            {
              "system": "http://loinc.org",
              "code": "54628-3",
              "display": "Inattention in last 7 days [CAM.CMS]"
            }
          ]
        },
        "subject": {
          "reference": "Patient/FPIG-patientBSJ1"
        },
        "effectiveDateTime": "2020-04-09T18:00:00-05:00",
        "performer": [
          {
            "reference": "PractitionerRole/FPIG-Role-SLP-HoneyJones"
          }
        ],
        "valueCodeableConcept": {
          "coding": [
            {
              "system": "http://loinc.org",
              "code": "LA61-7",
              "display": "Behavior not present"
            }
          ]
        },
        "derivedFrom": [
          {
            "reference": "QuestionnaireResponse/FPIG-QResponse-SNF-CAM-Admission-1"
          }
        ],
        "resourceType": "Observation"
      },
      "request": {
        "method": "PUT",
        "url": "Observation/FPIG-CSC-SNF-CAM-Admission-1-Ob-Question-3"
      }
    },
    {
      "fullUrl": "Observation/FPIG-CSC-SNF-PHQ9-1-Ob-Question-26",
      "resource": {
        "id": "FPIG-CSC-SNF-PHQ9-1-Ob-Question-26",
        "meta": {
          "profile": [
            "http://hl7.org/fhir/us/pacio-fp/StructureDefinition/fp-observation"
          ]
        },
        "extension": [
          {
            "url": "http://hl7.org/fhir/us/pacio-fp/StructureDefinition/event-location",
            "valueReference": {
              "reference": "Location/FPIG-Org-Loc-03"
            }
          }
        ],
        "status": "final",
        "category": [
          {
            "coding": [
              {
                "system": "http://hl7.org/fhir/us/pacio-fp/CodeSystem/fp-functioning-cs",
                "code": "functioning",
                "display": "Functioning"
              }
            ]
          },
          {
            "coding": [
              {
                "system": "http://terminology.hl7.org/CodeSystem/observation-category",
                "code": "survey"
              }
            ]
          }
        ],
        "code": {
          "coding": [
            {
              "system": "http://loinc.org",
              "code": "54651-5",
              "display": "Moving or speaking so slowly that other people could have noticed. Or the opposite - being so fidgety or restless that you have been moving around a lot more than usual in last 2 weeks.frequency [Reported PHQ-9 CMS]"
            }
          ]
        },
        "subject": {
          "reference": "Patient/FPIG-patientBSJ1"
        },
        "effectiveDateTime": "2020-07-11T11:30:00-05:00",
        "performer": [
          {
            "reference": "PractitionerRole/FPIG-Role-SLP-LunaBaskins"
          }
        ],
        "valueCodeableConcept": {
          "coding": [
            {
              "system": "http://loinc.org",
              "code": "LA10997-7",
              "display": "Never or 1 day"
            }
          ]
        },
        "derivedFrom": [
          {
            "reference": "QuestionnaireResponse/FPIG-QResponse-SNF-PHQ9-1"
          }
        ],
        "resourceType": "Observation"
      },
      "request": {
        "method": "PUT",
        "url": "Observation/FPIG-CSC-SNF-PHQ9-1-Ob-Question-26"
      }
    },
    {
      "fullUrl": "Observation/FPIG-CSC-SNF-CAM-Admission-1",
      "resource": {
        "id": "FPIG-CSC-SNF-CAM-Admission-1",
        "meta": {
          "profile": [
            "http://hl7.org/fhir/us/pacio-fp/StructureDefinition/fp-collection"
          ]
        },
        "extension": [
          {
            "url": "http://hl7.org/fhir/us/pacio-fp/StructureDefinition/event-location",
            "valueReference": {
              "reference": "Location/FPIG-Org-Loc-02"
            }
          }
        ],
        "status": "final",
        "category": [
          {
            "coding": [
              {
                "system": "http://hl7.org/fhir/us/pacio-fp/CodeSystem/fp-functioning-cs",
                "code": "functioning",
                "display": "Functioning"
              }
            ]
          },
          {
            "coding": [
              {
                "system": "http://terminology.hl7.org/CodeSystem/observation-category",
                "code": "survey"
              }
            ]
          }
        ],
        "code": {
          "coding": [
            {
              "system": "http://loinc.org",
              "code": "86585-7",
              "display": "MDS v3.0 - RAI v1.17.2 - Signs and symptoms of delirium (from CAM) [CMS Assessment]"
            }
          ],
          "text": "MDS v3.0 - RAI v1.17.2 - Signs and symptoms of delirium (from CAM) [CMS Assessment]"
        },
        "subject": {
          "reference": "Patient/FPIG-patientBSJ1"
        },
        "effectiveDateTime": "2020-04-09T18:00:00-05:00",
        "performer": [
          {
            "reference": "PractitionerRole/FPIG-Role-SLP-HoneyJones"
          }
        ],
        "hasMember": [
          {
            "reference": "Observation/FPIG-CSC-SNF-CAM-Admission-1-Ob-Question-1"
          },
          {
            "reference": "Observation/FPIG-CSC-SNF-CAM-Admission-1-Ob-Question-3"
          },
          {
            "reference": "Observation/FPIG-CSC-SNF-CAM-Admission-1-Ob-Question-5"
          }
        ],
        "derivedFrom": [
          {
            "reference": "QuestionnaireResponse/FPIG-QResponse-SNF-CAM-Admission-1"
          }
        ],
        "resourceType": "Observation"
      },
      "request": {
        "method": "PUT",
        "url": "Observation/FPIG-CSC-SNF-CAM-Admission-1"
      }
    },
    {
      "fullUrl": "QuestionnaireResponse/FPIG-QResponse-SNF-BIMS-1",
      "resource": {
        "id": "FPIG-QResponse-SNF-BIMS-1",
        "meta": {
          "profile": [
            "http://hl7.org/fhir/uv/sdc/StructureDefinition/sdc-questionnaireresponse"
          ]
        },
        "text": {
          "status": "generated",
          "div": "<div xmlns=\"http://www.w3.org/1999/xhtml\"><p><b>Generated Narrative</b></p><p><b>questionnaire</b>: <a href=\"http://example.org/Questionnaire/MDS3.0-NC-1.17\">http://example.org/Questionnaire/MDS3.0-NC-1.17</a></p><p><b>status</b>: completed</p><p><b>subject</b>: <a href=\"Patient-patientBSJ1.html\">Generated Summary: Betsy Smith-Johnson</a></p><p><b>authored</b>: Jul 11, 2020 4:30:00 PM</p><p><b>author</b>: <a href=\"PractitionerRole-Role-SLP-HoneyJones.html\">Generated Summary: active: true; <span title=\"Codes: {http://snomed.info/sct 159026005}\">Speech and language therapist</span></a></p><blockquote><p><b>item</b></p><p><b>linkId</b>: Section-3</p><p><b>text</b>: MDS v3.0 - RAI v1.17.2 - Cognitive patterns [CMS Assessment]</p><blockquote><p><b>item</b></p><p><b>linkId</b>: Section-3/C0200-C0500</p><p><b>text</b>: Brief interview for mental status [BIMS]</p></blockquote></blockquote></div>"
        },
        "questionnaire": "http://example.org/Questionnaire/MDS3.0-NC-1.17",
        "status": "completed",
        "subject": {
          "reference": "Patient/FPIG-patientBSJ1"
        },
        "authored": "2020-07-11T11:30:00-05:00",
        "author": {
          "reference": "PractitionerRole/Role-SLP-HoneyJones"
        },
        "item": [
          {
            "linkId": "Section-3",
            "text": "MDS v3.0 - RAI v1.17.2 - Cognitive patterns [CMS Assessment]",
            "item": [
              {
                "linkId": "Section-3/C0200-C0500",
                "text": "Brief interview for mental status [BIMS]",
                "item": [
                  {
                    "linkId": "Section-3/C0200",
                    "text": "Repetition of Three Words. Number of words repeated after first attempt",
                    "answer": [
                      {
                        "valueCoding": {
                          "system": "http://loinc.org",
                          "code": "LA6404-3",
                          "display": "Two"
                        }
                      }
                    ]
                  },
                  {
                    "linkId": "Section-3/C0300",
                    "text": "Temporal orientation (orientation to year, month, and day) [BIMS]",
                    "item": [
                      {
                        "linkId": "Section-3/C0300A",
                        "text": "Able to report correct year",
                        "answer": [
                          {
                            "valueCoding": {
                              "system": "http://loinc.org",
                              "code": "LA10008-3",
                              "display": "Missed by 1 year"
                            }
                          }
                        ]
                      },
                      {
                        "linkId": "Section-3/C0300B",
                        "text": "Able to report correct month",
                        "answer": [
                          {
                            "valueCoding": {
                              "system": "http://loinc.org",
                              "code": "LA10010-9",
                              "display": "Missed by 6 days to 1 month"
                            }
                          }
                        ]
                      },
                      {
                        "linkId": "Section-3/C0300C",
                        "text": "Able to report correct day of the week",
                        "answer": [
                          {
                            "valueCoding": {
                              "system": "http://loinc.org",
                              "code": "LA9960-1",
                              "display": "Correct"
                            }
                          }
                        ]
                      }
                    ]
                  },
                  {
                    "linkId": "Section-3/C0400",
                    "text": "Recall [BIMS]",
                    "item": [
                      {
                        "linkId": "Section-3/C0400A",
                        "text": "Able to recall \"sock\"",
                        "answer": [
                          {
                            "valueCoding": {
                              "system": "http://loinc.org",
                              "code": "LA10126-3",
                              "display": "Yes, after cueing (\"something to wear\")"
                            }
                          }
                        ]
                      },
                      {
                        "linkId": "Section-3/C0400B",
                        "text": "Able to recall \"blue\"",
                        "answer": [
                          {
                            "valueCoding": {
                              "system": "http://loinc.org",
                              "code": "LA10978-7",
                              "display": "Yes, after cueing (\"a color\")"
                            }
                          }
                        ]
                      },
                      {
                        "linkId": "Section-3/C0400C",
                        "text": "Able to recall \"bed\"",
                        "answer": [
                          {
                            "valueCoding": {
                              "system": "http://loinc.org",
                              "code": "LA10125-5",
                              "display": "Yes, after cueing (\"a piece of furniture\")"
                            }
                          }
                        ]
                      }
                    ]
                  },
                  {
                    "linkId": "Section-3/C0500",
                    "text": "BIMS Summary Score",
                    "answer": [
                      {
                        "valueQuantity": {
                          "value": 9,
                          "system": "http://unitsofmeasure.org",
                          "code": "{score}"
                        }
                      }
                    ]
                  }
                ]
              }
            ]
          }
        ],
        "resourceType": "QuestionnaireResponse"
      },
      "request": {
        "method": "PUT",
        "url": "QuestionnaireResponse/FPIG-QResponse-SNF-BIMS-1"
      }
    },
    {
      "fullUrl": "Device/FPIG-CMS-Device-Eyeglasses",
      "resource": {
        "id": "FPIG-CMS-Device-Eyeglasses",
        "deviceName": [
          {
            "name": "Eyeglasses",
            "type": "user-friendly-name"
          }
        ],
        "resourceType": "Device"
      },
      "request": {
        "method": "PUT",
        "url": "Device/FPIG-CMS-Device-Eyeglasses"
      }
    },
    {
      "fullUrl": "Practitioner/Practitioner-JohnSmith",
      "resource": {
        "id": "Practitioner-JohnSmith",
        "identifier": [
          {
            "system": "http://hl7.org/fhir/sid/us-npi",
            "value": "4278275001"
          }
        ],
        "active": true,
        "name": [
          {
            "text": "John Smith",
            "family": "Smith",
            "given": [
              "John"
            ]
          }
        ],
        "telecom": [
          {
            "system": "phone"
          }
        ],
        "gender": "male",
        "resourceType": "Practitioner"
      },
      "request": {
        "method": "PUT",
        "url": "Practitioner/Practitioner-JohnSmith"
      }
    },
    {
      "fullUrl": "Observation/FPIG-CSC-SNF-PHQ9-1-Ob-Question-11",
      "resource": {
        "id": "FPIG-CSC-SNF-PHQ9-1-Ob-Question-11",
        "meta": {
          "profile": [
            "http://hl7.org/fhir/us/pacio-fp/StructureDefinition/fp-observation"
          ]
        },
        "extension": [
          {
            "url": "http://hl7.org/fhir/us/pacio-fp/StructureDefinition/event-location",
            "valueReference": {
              "reference": "Location/FPIG-Org-Loc-03"
            }
          }
        ],
        "status": "final",
        "category": [
          {
            "coding": [
              {
                "system": "http://hl7.org/fhir/us/pacio-fp/CodeSystem/fp-functioning-cs",
                "code": "functioning",
                "display": "Functioning"
              }
            ]
          },
          {
            "coding": [
              {
                "system": "http://terminology.hl7.org/CodeSystem/observation-category",
                "code": "survey"
              }
            ]
          }
        ],
        "code": {
          "coding": [
            {
              "system": "http://loinc.org",
              "code": "54636-6",
              "display": "Little interest or pleasure in doing things in last 2 weeks.presence [Reported PHQ-9 CMS]"
            }
          ]
        },
        "subject": {
          "reference": "Patient/FPIG-patientBSJ1"
        },
        "effectiveDateTime": "2020-07-11T11:30:00-05:00",
        "performer": [
          {
            "reference": "PractitionerRole/FPIG-Role-SLP-LunaBaskins"
          }
        ],
        "valueCodeableConcept": {
          "coding": [
            {
              "system": "http://loinc.org",
              "code": "LA33-6",
              "display": "Yes"
            }
          ]
        },
        "derivedFrom": [
          {
            "reference": "QuestionnaireResponse/FPIG-QResponse-SNF-PHQ9-1"
          }
        ],
        "resourceType": "Observation"
      },
      "request": {
        "method": "PUT",
        "url": "Observation/FPIG-CSC-SNF-PHQ9-1-Ob-Question-11"
      }
    },
    {
      "fullUrl": "Observation/FPIG-Narrative-History-Cognitive-Status-1",
      "resource": {
        "id": "FPIG-Narrative-History-Cognitive-Status-1",
        "meta": {
          "profile": [
            "http://hl7.org/fhir/us/pacio-cs/StructureDefinition/pacio-nhcs"
          ]
        },
        "text": {
          "status": "extensions",
          "div": "<div xmlns=\"http://www.w3.org/1999/xhtml\"><p><b>Generated Narrative</b></p><p><b>ObservationEventLocation</b>: <a href=\"Location-provider-org-loc-01.html\">Generated Summary: status: active; name: Primary Care INC.</a></p><p><b>AssistanceRequired</b>: <span title=\"Codes: {http://loinc.org LA11539-6}\">Independent - Patient completed the activities by him/herself, with or without an assistive device, with no assistance from a helper.</span></p><p></p><p><b>category</b>: <span title=\"Codes: {http://hl7.org/fhir/us/pacio-cs/CodeSystem/pacio-cat-cs functioning}\">Functioning</span></p><p><b>code</b>: <span title=\"Codes: {http://loinc.org 11332-4}\">History of Cognitive Function Narrative</span></p><p><b>subject</b>: <a href=\"Patient-patientBSJ1.html\">Generated Summary: Betsy Smith-Johnson</a></p><p><b>effective</b>: 2019-07-01 --&gt; 2020-11-30</p><p><b>performer</b>: <a href=\"PractitionerRole-provider-role-pcp.html\">Generated Summary: active: true; <span title=\"Codes: {http://nucc.org/provider-taxonomy 261QP2300X}\">Primary Care Clinic/Center</span></a></p><p><b>value</b>: Alert and oriented x 3. She is independent in household finances, social and community activities, coeherent and appropriate communication. Appropriate attire for location and weather.</p></div>"
        },
        "extension": [
          {
            "url": "http://hl7.org/fhir/us/pacio-cs/StructureDefinition/event-location",
            "valueReference": {
              "reference": "Location/provider-org-loc-01"
            }
          },
          {
            "url": "http://hl7.org/fhir/us/pacio-cs/StructureDefinition/assistance-required",
            "valueCodeableConcept": {
              "coding": [
                {
                  "system": "http://loinc.org",
                  "code": "LA11539-6",
                  "display": "Independent - Patient completed the activities by him/herself, with or without an assistive device, with no assistance from a helper."
                }
              ]
            }
          }
        ],
        "status": "final",
        "category": [
          {
            "coding": [
              {
                "system": "http://hl7.org/fhir/us/pacio-cs/CodeSystem/pacio-cat-cs",
                "code": "functioning",
                "display": "Functioning"
              }
            ]
          }
        ],
        "code": {
          "coding": [
            {
              "system": "http://loinc.org",
              "code": "11332-4",
              "display": "History of Cognitive Function Narrative"
            }
          ]
        },
        "subject": {
          "reference": "Patient/FPIG-patientBSJ1"
        },
        "effectivePeriod": {
          "start": "2019-07-01",
          "end": "2020-11-30"
        },
        "performer": [
          {
            "reference": "PractitionerRole/provider-role-pcp"
          }
        ],
        "valueString": "Alert and oriented x 3. She is independent in household finances, social and community activities, coeherent and appropriate communication. Appropriate attire for location and weather.",
        "resourceType": "Observation"
      },
      "request": {
        "method": "PUT",
        "url": "Observation/FPIG-Narrative-History-Cognitive-Status-1"
      }
    },
    {
      "fullUrl": "Observation/FPIG-CSC-SNF-BIMS-1-Ob-Question-3",
      "resource": {
        "id": "FPIG-CSC-SNF-BIMS-1-Ob-Question-3",
        "meta": {
          "profile": [
            "http://hl7.org/fhir/us/pacio-fp/StructureDefinition/fp-observation"
          ]
        },
        "extension": [
          {
            "url": "http://hl7.org/fhir/us/pacio-fp/StructureDefinition/event-location",
            "valueReference": {
              "reference": "Location/FPIG-Org-Loc-02"
            }
          }
        ],
        "status": "final",
        "category": [
          {
            "coding": [
              {
                "system": "http://hl7.org/fhir/us/pacio-fp/CodeSystem/fp-functioning-cs",
                "code": "functioning",
                "display": "Functioning"
              }
            ]
          },
          {
            "coding": [
              {
                "system": "http://terminology.hl7.org/CodeSystem/observation-category",
                "code": "survey"
              }
            ]
          }
        ],
        "code": {
          "coding": [
            {
              "system": "http://loinc.org",
              "code": "52731-7",
              "display": "Repetition of three words # [BIMS]"
            }
          ]
        },
        "subject": {
          "reference": "Patient/FPIG-patientBSJ1"
        },
        "effectiveDateTime": "2020-07-11T11:30:00-05:00",
        "performer": [
          {
            "reference": "PractitionerRole/FPIG-Role-SLP-HoneyJones"
          }
        ],
        "valueCodeableConcept": {
          "coding": [
            {
              "system": "http://loinc.org",
              "code": "LA6404-3",
              "display": "Two"
            }
          ]
        },
        "derivedFrom": [
          {
            "reference": "QuestionnaireResponse/FPIG-QResponse-SNF-BIMS-1"
          }
        ],
        "resourceType": "Observation"
      },
      "request": {
        "method": "PUT",
        "url": "Observation/FPIG-CSC-SNF-BIMS-1-Ob-Question-3"
      }
    },
    {
      "fullUrl": "Observation/FPIG-CSC-SNF-PHQ9-1-Ob-Question-27",
      "resource": {
        "id": "FPIG-CSC-SNF-PHQ9-1-Ob-Question-27",
        "meta": {
          "profile": [
            "http://hl7.org/fhir/us/pacio-fp/StructureDefinition/fp-observation"
          ]
        },
        "extension": [
          {
            "url": "http://hl7.org/fhir/us/pacio-fp/StructureDefinition/event-location",
            "valueReference": {
              "reference": "Location/FPIG-Org-Loc-03"
            }
          }
        ],
        "status": "final",
        "category": [
          {
            "coding": [
              {
                "system": "http://hl7.org/fhir/us/pacio-fp/CodeSystem/fp-functioning-cs",
                "code": "functioning",
                "display": "Functioning"
              }
            ]
          },
          {
            "coding": [
              {
                "system": "http://terminology.hl7.org/CodeSystem/observation-category",
                "code": "survey"
              }
            ]
          }
        ],
        "code": {
          "coding": [
            {
              "system": "http://loinc.org",
              "code": "54652-3",
              "display": "Thoughts that you would be better off dead, or of hurting yourself in some way in last 2 weeks.presence [Reported PHQ-9 CMS]"
            }
          ]
        },
        "subject": {
          "reference": "Patient/FPIG-patientBSJ1"
        },
        "effectiveDateTime": "2020-07-11T11:30:00-05:00",
        "performer": [
          {
            "reference": "PractitionerRole/FPIG-Role-SLP-LunaBaskins"
          }
        ],
        "valueCodeableConcept": {
          "coding": [
            {
              "system": "http://loinc.org",
              "code": "LA10996-9",
              "display": "No response"
            }
          ]
        },
        "derivedFrom": [
          {
            "reference": "QuestionnaireResponse/FPIG-QResponse-SNF-PHQ9-1"
          }
        ],
        "resourceType": "Observation"
      },
      "request": {
        "method": "PUT",
        "url": "Observation/FPIG-CSC-SNF-PHQ9-1-Ob-Question-27"
      }
    },
    {
      "fullUrl": "ImplementationGuide/pacio.may2022.connectathondata",
      "resource": {
        "id": "pacio.may2022.connectathondata",
        "url": "http://example.org/ImplementationGuide/pacio.may2022.connectathondata",
        "version": "0.1.0",
        "name": "PACIOMay2022ConnectathonData",
        "status": "draft",
        "publisher": "PACIO",
        "contact": [
          {
            "name": "PACIO",
            "telecom": [
              {
                "system": "url",
                "value": "http://example.org/example-publisher"
              }
            ]
          }
        ],
        "packageId": "pacio.may2022.connectathondata",
        "fhirVersion": [
          "4.0.1"
        ],
        "dependsOn": [
          {
            "id": "hl7_fhir_us_core",
            "uri": "http://hl7.org/fhir/us/core/ImplementationGuide/hl7.fhir.us.core",
            "packageId": "hl7.fhir.us.core",
            "version": "3.1.0"
          },
          {
            "id": "paciofp",
            "uri": "http://hl7.org/fhir/us/pacio-fp/ImplementationGuide/hl7.fhir.us.pacio-fp",
            "packageId": "hl7.fhir.us.pacio-fp",
            "version": "dev"
          }
        ],
        "definition": {
          "resource": [
            {
              "reference": {
                "reference": "Device/FPIG-CMS-Device-Eyeglasses"
              },
              "name": "FPIG-CMS-Device-Eyeglasses",
              "description": "An instance of Device",
              "exampleBoolean": true
            },
            {
              "reference": {
                "reference": "Device/FPIG-CMS-Device-HearingAid"
              },
              "name": "FPIG-CMS-Device-HearingAid",
              "description": "An instance of Device",
              "exampleBoolean": true
            },
            {
              "reference": {
                "reference": "Observation/FPIG-CSC-Hospital-MMSE-1"
              },
              "name": "FPIG-CSC-Hospital-MMSE-1",
              "description": "An instance of Functional Performance Collection",
              "exampleBoolean": true
            },
            {
              "reference": {
                "reference": "Observation/FPIG-CSC-Hospital-MMSE-1-Ob-Question-31"
              },
              "name": "FPIG-CSC-Hospital-MMSE-1-Ob-Question-31",
              "description": "An instance of Functional Performance Observation",
              "exampleBoolean": true
            },
            {
              "reference": {
                "reference": "Observation/FPIG-CSC-Hospital-MOCA-1"
              },
              "name": "FPIG-CSC-Hospital-MOCA-1",
              "description": "An instance of Functional Performance Collection",
              "exampleBoolean": true
            },
            {
              "reference": {
                "reference": "Observation/FPIG-CSC-Hospital-MOCA-1-Ob-Question-1"
              },
              "name": "FPIG-CSC-Hospital-MOCA-1-Ob-Question-1",
              "description": "An instance of Functional Performance Observation",
              "exampleBoolean": true
            },
            {
              "reference": {
                "reference": "Observation/FPIG-CSC-SNF-BIMS-1"
              },
              "name": "FPIG-CSC-SNF-BIMS-1",
              "description": "An instance of Functional Performance Collection",
              "exampleBoolean": true
            },
            {
              "reference": {
                "reference": "Observation/FPIG-CSC-SNF-BIMS-1-Ob-Question-10"
              },
              "name": "FPIG-CSC-SNF-BIMS-1-Ob-Question-10",
              "description": "An instance of Functional Performance Observation",
              "exampleBoolean": true
            },
            {
              "reference": {
                "reference": "Observation/FPIG-CSC-SNF-BIMS-1-Ob-Question-3"
              },
              "name": "FPIG-CSC-SNF-BIMS-1-Ob-Question-3",
              "description": "An instance of Functional Performance Observation",
              "exampleBoolean": true
            },
            {
              "reference": {
                "reference": "Observation/FPIG-CSC-SNF-BIMS-1-Ob-Question-4"
              },
              "name": "FPIG-CSC-SNF-BIMS-1-Ob-Question-4",
              "description": "An instance of Functional Performance Observation",
              "exampleBoolean": true
            },
            {
              "reference": {
                "reference": "Observation/FPIG-CSC-SNF-BIMS-1-Ob-Question-5"
              },
              "name": "FPIG-CSC-SNF-BIMS-1-Ob-Question-5",
              "description": "An instance of Functional Performance Observation",
              "exampleBoolean": true
            },
            {
              "reference": {
                "reference": "Observation/FPIG-CSC-SNF-BIMS-1-Ob-Question-6"
              },
              "name": "FPIG-CSC-SNF-BIMS-1-Ob-Question-6",
              "description": "An instance of Functional Performance Observation",
              "exampleBoolean": true
            },
            {
              "reference": {
                "reference": "Observation/FPIG-CSC-SNF-BIMS-1-Ob-Question-7"
              },
              "name": "FPIG-CSC-SNF-BIMS-1-Ob-Question-7",
              "description": "An instance of Functional Performance Observation",
              "exampleBoolean": true
            },
            {
              "reference": {
                "reference": "Observation/FPIG-CSC-SNF-BIMS-1-Ob-Question-8"
              },
              "name": "FPIG-CSC-SNF-BIMS-1-Ob-Question-8",
              "description": "An instance of Functional Performance Observation",
              "exampleBoolean": true
            },
            {
              "reference": {
                "reference": "Observation/FPIG-CSC-SNF-BIMS-1-Ob-Question-9"
              },
              "name": "FPIG-CSC-SNF-BIMS-1-Ob-Question-9",
              "description": "An instance of Functional Performance Observation",
              "exampleBoolean": true
            },
            {
              "reference": {
                "reference": "DeviceUseStatement/FPIG-CSC-SNF-BIMS-1-UseOfDevice-1"
              },
              "name": "FPIG-CSC-SNF-BIMS-1-UseOfDevice-1",
              "description": "An instance of FunctionalPerformanceUseOfDevice",
              "exampleBoolean": true
            },
            {
              "reference": {
                "reference": "DeviceUseStatement/FPIG-CSC-SNF-BIMS-1-UseOfDevice-2"
              },
              "name": "FPIG-CSC-SNF-BIMS-1-UseOfDevice-2",
              "description": "An instance of FunctionalPerformanceUseOfDevice",
              "exampleBoolean": true
            },
            {
              "reference": {
                "reference": "Observation/FPIG-CSC-SNF-CAM-Admission-1"
              },
              "name": "FPIG-CSC-SNF-CAM-Admission-1",
              "description": "An instance of Functional Performance Collection",
              "exampleBoolean": true
            },
            {
              "reference": {
                "reference": "Observation/FPIG-CSC-SNF-CAM-Admission-1-Ob-Question-1"
              },
              "name": "FPIG-CSC-SNF-CAM-Admission-1-Ob-Question-1",
              "description": "An instance of Functional Performance Observation",
              "exampleBoolean": true
            },
            {
              "reference": {
                "reference": "Observation/FPIG-CSC-SNF-CAM-Admission-1-Ob-Question-3"
              },
              "name": "FPIG-CSC-SNF-CAM-Admission-1-Ob-Question-3",
              "description": "An instance of Functional Performance Observation",
              "exampleBoolean": true
            },
            {
              "reference": {
                "reference": "Observation/FPIG-CSC-SNF-CAM-Admission-1-Ob-Question-5"
              },
              "name": "FPIG-CSC-SNF-CAM-Admission-1-Ob-Question-5",
              "description": "An instance of Functional Performance Observation",
              "exampleBoolean": true
            },
            {
              "reference": {
                "reference": "Observation/FPIG-CSC-SNF-PHQ9-1"
              },
              "name": "FPIG-CSC-SNF-PHQ9-1",
              "description": "An instance of Functional Performance Collection",
              "exampleBoolean": true
            },
            {
              "reference": {
                "reference": "Observation/FPIG-CSC-SNF-PHQ9-1-Ob-Question-11"
              },
              "name": "FPIG-CSC-SNF-PHQ9-1-Ob-Question-11",
              "description": "An instance of Functional Performance Observation",
              "exampleBoolean": true
            },
            {
              "reference": {
                "reference": "Observation/FPIG-CSC-SNF-PHQ9-1-Ob-Question-12"
              },
              "name": "FPIG-CSC-SNF-PHQ9-1-Ob-Question-12",
              "description": "An instance of Functional Performance Observation",
              "exampleBoolean": true
            },
            {
              "reference": {
                "reference": "Observation/FPIG-CSC-SNF-PHQ9-1-Ob-Question-13"
              },
              "name": "FPIG-CSC-SNF-PHQ9-1-Ob-Question-13",
              "description": "An instance of Functional Performance Observation",
              "exampleBoolean": true
            },
            {
              "reference": {
                "reference": "Observation/FPIG-CSC-SNF-PHQ9-1-Ob-Question-14"
              },
              "name": "FPIG-CSC-SNF-PHQ9-1-Ob-Question-14",
              "description": "An instance of Functional Performance Observation",
              "exampleBoolean": true
            },
            {
              "reference": {
                "reference": "Observation/FPIG-CSC-SNF-PHQ9-1-Ob-Question-15"
              },
              "name": "FPIG-CSC-SNF-PHQ9-1-Ob-Question-15",
              "description": "An instance of Functional Performance Observation",
              "exampleBoolean": true
            },
            {
              "reference": {
                "reference": "Observation/FPIG-CSC-SNF-PHQ9-1-Ob-Question-16"
              },
              "name": "FPIG-CSC-SNF-PHQ9-1-Ob-Question-16",
              "description": "An instance of Functional Performance Observation",
              "exampleBoolean": true
            },
            {
              "reference": {
                "reference": "Observation/FPIG-CSC-SNF-PHQ9-1-Ob-Question-17"
              },
              "name": "FPIG-CSC-SNF-PHQ9-1-Ob-Question-17",
              "description": "An instance of Functional Performance Observation",
              "exampleBoolean": true
            },
            {
              "reference": {
                "reference": "Observation/FPIG-CSC-SNF-PHQ9-1-Ob-Question-18"
              },
              "name": "FPIG-CSC-SNF-PHQ9-1-Ob-Question-18",
              "description": "An instance of Functional Performance Observation",
              "exampleBoolean": true
            },
            {
              "reference": {
                "reference": "Observation/FPIG-CSC-SNF-PHQ9-1-Ob-Question-19"
              },
              "name": "FPIG-CSC-SNF-PHQ9-1-Ob-Question-19",
              "description": "An instance of Functional Performance Observation",
              "exampleBoolean": true
            },
            {
              "reference": {
                "reference": "Observation/FPIG-CSC-SNF-PHQ9-1-Ob-Question-20"
              },
              "name": "FPIG-CSC-SNF-PHQ9-1-Ob-Question-20",
              "description": "An instance of Functional Performance Observation",
              "exampleBoolean": true
            },
            {
              "reference": {
                "reference": "Observation/FPIG-CSC-SNF-PHQ9-1-Ob-Question-21"
              },
              "name": "FPIG-CSC-SNF-PHQ9-1-Ob-Question-21",
              "description": "An instance of Functional Performance Observation",
              "exampleBoolean": true
            },
            {
              "reference": {
                "reference": "Observation/FPIG-CSC-SNF-PHQ9-1-Ob-Question-22"
              },
              "name": "FPIG-CSC-SNF-PHQ9-1-Ob-Question-22",
              "description": "An instance of Functional Performance Observation",
              "exampleBoolean": true
            },
            {
              "reference": {
                "reference": "Observation/FPIG-CSC-SNF-PHQ9-1-Ob-Question-23"
              },
              "name": "FPIG-CSC-SNF-PHQ9-1-Ob-Question-23",
              "description": "An instance of Functional Performance Observation",
              "exampleBoolean": true
            },
            {
              "reference": {
                "reference": "Observation/FPIG-CSC-SNF-PHQ9-1-Ob-Question-24"
              },
              "name": "FPIG-CSC-SNF-PHQ9-1-Ob-Question-24",
              "description": "An instance of Functional Performance Observation",
              "exampleBoolean": true
            },
            {
              "reference": {
                "reference": "Observation/FPIG-CSC-SNF-PHQ9-1-Ob-Question-25"
              },
              "name": "FPIG-CSC-SNF-PHQ9-1-Ob-Question-25",
              "description": "An instance of Functional Performance Observation",
              "exampleBoolean": true
            },
            {
              "reference": {
                "reference": "Observation/FPIG-CSC-SNF-PHQ9-1-Ob-Question-26"
              },
              "name": "FPIG-CSC-SNF-PHQ9-1-Ob-Question-26",
              "description": "An instance of Functional Performance Observation",
              "exampleBoolean": true
            },
            {
              "reference": {
                "reference": "Observation/FPIG-CSC-SNF-PHQ9-1-Ob-Question-27"
              },
              "name": "FPIG-CSC-SNF-PHQ9-1-Ob-Question-27",
              "description": "An instance of Functional Performance Observation",
              "exampleBoolean": true
            },
            {
              "reference": {
                "reference": "Observation/FPIG-CSC-SNF-PHQ9-1-Ob-Question-28"
              },
              "name": "FPIG-CSC-SNF-PHQ9-1-Ob-Question-28",
              "description": "An instance of Functional Performance Observation",
              "exampleBoolean": true
            },
            {
              "reference": {
                "reference": "Observation/FPIG-CSC-SNF-PHQ9-1-Ob-Question-29"
              },
              "name": "FPIG-CSC-SNF-PHQ9-1-Ob-Question-29",
              "description": "An instance of Functional Performance Observation",
              "exampleBoolean": true
            },
            {
              "reference": {
                "reference": "Organization/FPIG-Org-01"
              },
              "name": "FPIG-Org-01",
              "description": "An instance of Organization",
              "exampleBoolean": true
            },
            {
              "reference": {
                "reference": "Organization/FPIG-Org-02"
              },
              "name": "FPIG-Org-02",
              "description": "An instance of Organization",
              "exampleBoolean": true
            },
            {
              "reference": {
                "reference": "Organization/FPIG-Org-03"
              },
              "name": "FPIG-Org-03",
              "description": "An instance of Organization",
              "exampleBoolean": true
            },
            {
              "reference": {
                "reference": "Location/FPIG-Org-Loc-01"
              },
              "name": "FPIG-Org-Loc-01",
              "description": "An instance of Location",
              "exampleBoolean": true
            },
            {
              "reference": {
                "reference": "Location/FPIG-Org-Loc-02"
              },
              "name": "FPIG-Org-Loc-02",
              "description": "An instance of Location",
              "exampleBoolean": true
            },
            {
              "reference": {
                "reference": "Location/FPIG-Org-Loc-03"
              },
              "name": "FPIG-Org-Loc-03",
              "description": "An instance of Location",
              "exampleBoolean": true
            },
            {
              "reference": {
                "reference": "PractitionerRole/FPIG-Role-SLP-HoneyJones"
              },
              "name": "FPIG-Role-SLP-HoneyJones",
              "description": "An instance of PractitionerRole",
              "exampleBoolean": true
            },
            {
              "reference": {
                "reference": "PractitionerRole/FPIG-Role-SLP-JennyGlass"
              },
              "name": "FPIG-Role-SLP-JennyGlass",
              "description": "An instance of PractitionerRole",
              "exampleBoolean": true
            },
            {
              "reference": {
                "reference": "PractitionerRole/FPIG-Role-SLP-LunaBaskins"
              },
              "name": "FPIG-Role-SLP-LunaBaskins",
              "description": "An instance of PractitionerRole",
              "exampleBoolean": true
            },
            {
              "reference": {
                "reference": "Patient/FPIG-patientBSJ1"
              },
              "name": "FPIG-patientBSJ1",
              "description": "An instance of USCorePatientProfile",
              "exampleBoolean": true
            },
            {
              "reference": {
                "reference": "Organization/FPIG-provider-org-01"
              },
              "name": "FPIG-provider-org-01",
              "description": "An instance of Organization",
              "exampleBoolean": true
            },
            {
              "reference": {
                "reference": "Organization/FPIG-provider-org-16"
              },
              "name": "FPIG-provider-org-16",
              "description": "An instance of Organization",
              "exampleBoolean": true
            },
            {
              "reference": {
                "reference": "Location/FPIG-provider-org-loc-01"
              },
              "name": "FPIG-provider-org-loc-01",
              "description": "An instance of Location",
              "exampleBoolean": true
            },
            {
              "reference": {
                "reference": "Location/FPIG-provider-org-loc-16"
              },
              "name": "FPIG-provider-org-loc-16",
              "description": "An instance of Location",
              "exampleBoolean": true
            },
            {
              "reference": {
                "reference": "PractitionerRole/FPIG-provider-role-neurologist"
              },
              "name": "FPIG-provider-role-neurologist",
              "description": "An instance of PractitionerRole",
              "exampleBoolean": true
            },
            {
              "reference": {
                "reference": "PractitionerRole/FPIG-provider-role-pcp"
              },
              "name": "FPIG-provider-role-pcp",
              "description": "An instance of PractitionerRole",
              "exampleBoolean": true
            },
            {
              "reference": {
                "reference": "Practitioner/Practitioner-HoneyJones"
              },
              "name": "Practitioner-HoneyJones",
              "description": "An instance of Practitioner",
              "exampleBoolean": true
            },
            {
              "reference": {
                "reference": "Practitioner/Practitioner-JennyGlass"
              },
              "name": "Practitioner-JennyGlass",
              "description": "An instance of Practitioner",
              "exampleBoolean": true
            },
            {
              "reference": {
                "reference": "Practitioner/Practitioner-JohnSmith"
              },
              "name": "Practitioner-JohnSmith",
              "description": "An instance of Practitioner",
              "exampleBoolean": true
            },
            {
              "reference": {
                "reference": "Practitioner/Practitioner-LunaBaskins"
              },
              "name": "Practitioner-LunaBaskins",
              "description": "An instance of Practitioner",
              "exampleBoolean": true
            },
            {
              "reference": {
                "reference": "Practitioner/Practitioner-NoraOlogist"
              },
              "name": "Practitioner-NoraOlogist",
              "description": "An instance of Practitioner",
              "exampleBoolean": true
            }
          ],
          "page": {
            "nameUrl": "toc.html",
            "title": "Table of Contents",
            "generation": "html",
            "page": [
              {
                "nameUrl": "index.html",
                "title": "Home",
                "generation": "markdown"
              }
            ]
          },
          "parameter": [
            {
              "code": "copyrightyear",
              "value": "2022+"
            },
            {
              "code": "releaselabel",
              "value": "ci-build"
            }
          ]
        },
        "resourceType": "ImplementationGuide"
      },
      "request": {
        "method": "PUT",
        "url": "ImplementationGuide/pacio.may2022.connectathondata"
      }
    },
    {
      "fullUrl": "Location/FPIG-Org-Loc-02",
      "resource": {
        "id": "FPIG-Org-Loc-02",
        "status": "active",
        "name": "Happy Nursing Facility",
        "address": {
          "text": "8100 Pinebrook Dr, San Antonio, TX, 78230"
        },
        "resourceType": "Location"
      },
      "request": {
        "method": "PUT",
        "url": "Location/FPIG-Org-Loc-02"
      }
    },
    {
      "fullUrl": "Practitioner/Practitioner-HoneyJones",
      "resource": {
        "id": "Practitioner-HoneyJones",
        "active": true,
        "name": [
          {
            "text": "Honey Jones",
            "family": "Jones",
            "given": [
              "Honey"
            ]
          }
        ],
        "telecom": [
          {
            "system": "phone"
          }
        ],
        "gender": "female",
        "resourceType": "Practitioner"
      },
      "request": {
        "method": "PUT",
        "url": "Practitioner/Practitioner-HoneyJones"
      }
    },
    {
      "fullUrl": "Observation/FPIG-CSC-SNF-PHQ9-1",
      "resource": {
        "id": "FPIG-CSC-SNF-PHQ9-1",
        "meta": {
          "profile": [
            "http://hl7.org/fhir/us/pacio-fp/StructureDefinition/fp-collection"
          ]
        },
        "extension": [
          {
            "url": "http://hl7.org/fhir/us/pacio-fp/StructureDefinition/event-location",
            "valueReference": {
              "reference": "Location/FPIG-Org-Loc-03"
            }
          }
        ],
        "status": "final",
        "category": [
          {
            "coding": [
              {
                "system": "http://hl7.org/fhir/us/pacio-fp/CodeSystem/fp-functioning-cs",
                "code": "functioning",
                "display": "Functioning"
              }
            ]
          },
          {
            "coding": [
              {
                "system": "http://terminology.hl7.org/CodeSystem/observation-category",
                "code": "survey"
              }
            ]
          }
        ],
        "code": {
          "coding": [
            {
              "system": "http://loinc.org",
              "code": "54635-8",
              "display": "Resident mood interview (PHQ-9) [Reported PHQ-9 CMS]"
            }
          ],
          "text": "Resident mood interview (PHQ-9) [Reported PHQ-9 CMS]"
        },
        "subject": {
          "reference": "Patient/FPIG-patientBSJ1"
        },
        "effectiveDateTime": "2020-07-11T11:30:00-05:00",
        "performer": [
          {
            "reference": "PractitionerRole/FPIG-Role-SLP-LunaBaskins"
          }
        ],
        "hasMember": [
          {
            "reference": "Observation/FPIG-CSC-SNF-PHQ9-1-Ob-Question-11"
          },
          {
            "reference": "Observation/FPIG-CSC-SNF-PHQ9-1-Ob-Question-12"
          },
          {
            "reference": "Observation/FPIG-CSC-SNF-PHQ9-1-Ob-Question-13"
          },
          {
            "reference": "Observation/FPIG-CSC-SNF-PHQ9-1-Ob-Question-14"
          },
          {
            "reference": "Observation/FPIG-CSC-SNF-PHQ9-1-Ob-Question-15"
          },
          {
            "reference": "Observation/FPIG-CSC-SNF-PHQ9-1-Ob-Question-16"
          },
          {
            "reference": "Observation/FPIG-CSC-SNF-PHQ9-1-Ob-Question-17"
          },
          {
            "reference": "Observation/FPIG-CSC-SNF-PHQ9-1-Ob-Question-18"
          },
          {
            "reference": "Observation/FPIG-CSC-SNF-PHQ9-1-Ob-Question-19"
          },
          {
            "reference": "Observation/FPIG-CSC-SNF-PHQ9-1-Ob-Question-20"
          },
          {
            "reference": "Observation/FPIG-CSC-SNF-PHQ9-1-Ob-Question-21"
          },
          {
            "reference": "Observation/FPIG-CSC-SNF-PHQ9-1-Ob-Question-22"
          },
          {
            "reference": "Observation/FPIG-CSC-SNF-PHQ9-1-Ob-Question-23"
          },
          {
            "reference": "Observation/FPIG-CSC-SNF-PHQ9-1-Ob-Question-24"
          },
          {
            "reference": "Observation/FPIG-CSC-SNF-PHQ9-1-Ob-Question-25"
          },
          {
            "reference": "Observation/FPIG-CSC-SNF-PHQ9-1-Ob-Question-26"
          },
          {
            "reference": "Observation/FPIG-CSC-SNF-PHQ9-1-Ob-Question-27"
          },
          {
            "reference": "Observation/FPIG-CSC-SNF-PHQ9-1-Ob-Question-28"
          },
          {
            "reference": "Observation/FPIG-CSC-SNF-PHQ9-1-Ob-Question-29"
          }
        ],
        "derivedFrom": [
          {
            "reference": "QuestionnaireResponse/FPIG-QResponse-SNF-PHQ9-1"
          }
        ],
        "resourceType": "Observation"
      },
      "request": {
        "method": "PUT",
        "url": "Observation/FPIG-CSC-SNF-PHQ9-1"
      }
    },
    {
      "fullUrl": "Observation/FPIG-CSC-SNF-PHQ9-1-Ob-Question-24",
      "resource": {
        "id": "FPIG-CSC-SNF-PHQ9-1-Ob-Question-24",
        "meta": {
          "profile": [
            "http://hl7.org/fhir/us/pacio-fp/StructureDefinition/fp-observation"
          ]
        },
        "extension": [
          {
            "url": "http://hl7.org/fhir/us/pacio-fp/StructureDefinition/event-location",
            "valueReference": {
              "reference": "Location/FPIG-Org-Loc-03"
            }
          }
        ],
        "status": "final",
        "category": [
          {
            "coding": [
              {
                "system": "http://hl7.org/fhir/us/pacio-fp/CodeSystem/fp-functioning-cs",
                "code": "functioning",
                "display": "Functioning"
              }
            ]
          },
          {
            "coding": [
              {
                "system": "http://terminology.hl7.org/CodeSystem/observation-category",
                "code": "survey"
              }
            ]
          }
        ],
        "code": {
          "coding": [
            {
              "system": "http://loinc.org",
              "code": "54649-9",
              "display": "Trouble concentrating on things, such as reading the newspaper or watching television in last 2 weeks.frequency [Reported PHQ-9 CMS]"
            }
          ]
        },
        "subject": {
          "reference": "Patient/FPIG-patientBSJ1"
        },
        "effectiveDateTime": "2020-07-11T11:30:00-05:00",
        "performer": [
          {
            "reference": "PractitionerRole/FPIG-Role-SLP-LunaBaskins"
          }
        ],
        "valueCodeableConcept": {
          "coding": [
            {
              "system": "http://loinc.org",
              "code": "LA10997-7",
              "display": "Never or 1 day"
            }
          ]
        },
        "derivedFrom": [
          {
            "reference": "QuestionnaireResponse/FPIG-QResponse-SNF-PHQ9-1"
          }
        ],
        "resourceType": "Observation"
      },
      "request": {
        "method": "PUT",
        "url": "Observation/FPIG-CSC-SNF-PHQ9-1-Ob-Question-24"
      }
    },
    {
      "fullUrl": "Observation/FPIG-CSC-Hospital-MOCA-1-Ob-Question-1",
      "resource": {
        "id": "FPIG-CSC-Hospital-MOCA-1-Ob-Question-1",
        "meta": {
          "profile": [
            "http://hl7.org/fhir/us/pacio-fp/StructureDefinition/fp-observation"
          ]
        },
        "extension": [
          {
            "url": "http://hl7.org/fhir/us/pacio-fp/StructureDefinition/event-location",
            "valueReference": {
              "reference": "Location/FPIG-Org-Loc-01"
            }
          }
        ],
        "status": "final",
        "category": [
          {
            "coding": [
              {
                "system": "http://hl7.org/fhir/us/pacio-fp/CodeSystem/fp-functioning-cs",
                "code": "functioning",
                "display": "Functioning"
              }
            ]
          },
          {
            "coding": [
              {
                "system": "http://terminology.hl7.org/CodeSystem/observation-category",
                "code": "survey"
              }
            ]
          }
        ],
        "code": {
          "coding": [
            {
              "system": "http://loinc.org",
              "code": "72172-0",
              "display": "Total score [MoCA]"
            }
          ]
        },
        "subject": {
          "reference": "Patient/FPIG-patientBSJ1"
        },
        "effectiveDateTime": "2020-07-08T17:32:00-05:00",
        "performer": [
          {
            "reference": "PractitionerRole/FPIG-Role-SLP-JennyGlass"
          }
        ],
        "valueQuantity": {
          "value": 18,
          "system": "http://unitsofmeasure.org",
          "code": "{score}"
        },
        "derivedFrom": [
          {
            "reference": "QuestionnaireResponse/FPIG-QResponse-Hospital-MOCA-1"
          }
        ],
        "resourceType": "Observation"
      },
      "request": {
        "method": "PUT",
        "url": "Observation/FPIG-CSC-Hospital-MOCA-1-Ob-Question-1"
      }
    },
    {
      "fullUrl": "Observation/FPIG-CSC-SNF-CAM-Admission-1-Ob-Question-1",
      "resource": {
        "id": "FPIG-CSC-SNF-CAM-Admission-1-Ob-Question-1",
        "meta": {
          "profile": [
            "http://hl7.org/fhir/us/pacio-fp/StructureDefinition/fp-observation"
          ]
        },
        "extension": [
          {
            "url": "http://hl7.org/fhir/us/pacio-fp/StructureDefinition/event-location",
            "valueReference": {
              "reference": "Location/FPIG-Org-Loc-02"
            }
          }
        ],
        "status": "final",
        "category": [
          {
            "coding": [
              {
                "system": "http://hl7.org/fhir/us/pacio-fp/CodeSystem/fp-functioning-cs",
                "code": "functioning",
                "display": "Functioning"
              }
            ]
          },
          {
            "coding": [
              {
                "system": "http://terminology.hl7.org/CodeSystem/observation-category",
                "code": "survey"
              }
            ]
          }
        ],
        "code": {
          "coding": [
            {
              "system": "http://loinc.org",
              "code": "54632-5",
              "display": "Acute onset mental status change [CAM.CMS]"
            }
          ]
        },
        "subject": {
          "reference": "Patient/FPIG-patientBSJ1"
        },
        "effectiveDateTime": "2020-04-09T18:00:00-05:00",
        "performer": [
          {
            "reference": "PractitionerRole/FPIG-Role-SLP-HoneyJones"
          }
        ],
        "valueCodeableConcept": {
          "coding": [
            {
              "system": "http://loinc.org",
              "code": "LA32-8",
              "display": "No"
            }
          ]
        },
        "derivedFrom": [
          {
            "reference": "QuestionnaireResponse/FPIG-QResponse-SNF-CAM-Admission-1"
          }
        ],
        "resourceType": "Observation"
      },
      "request": {
        "method": "PUT",
        "url": "Observation/FPIG-CSC-SNF-CAM-Admission-1-Ob-Question-1"
      }
    },
    {
      "fullUrl": "Observation/FPIG-CSC-Hospital-MOCA-1",
      "resource": {
        "id": "FPIG-CSC-Hospital-MOCA-1",
        "meta": {
          "profile": [
            "http://hl7.org/fhir/us/pacio-fp/StructureDefinition/fp-collection"
          ]
        },
        "extension": [
          {
            "url": "http://hl7.org/fhir/us/pacio-fp/StructureDefinition/event-location",
            "valueReference": {
              "reference": "Location/FPIG-Org-Loc-01"
            }
          }
        ],
        "status": "final",
        "category": [
          {
            "coding": [
              {
                "system": "http://hl7.org/fhir/us/pacio-fp/CodeSystem/fp-functioning-cs",
                "code": "functioning",
                "display": "Functioning"
              }
            ]
          },
          {
            "coding": [
              {
                "system": "http://terminology.hl7.org/CodeSystem/observation-category",
                "code": "survey"
              }
            ]
          }
        ],
        "code": {
          "coding": [
            {
              "system": "http://loinc.org",
              "code": "72133-2",
              "display": "Montreal Cognitive Assessment [MoCA]"
            }
          ],
          "text": "Montreal Cognitive Assessment [MoCA]"
        },
        "subject": {
          "reference": "Patient/FPIG-patientBSJ1"
        },
        "effectiveDateTime": "2020-07-08T17:32:00-05:00",
        "performer": [
          {
            "reference": "PractitionerRole/FPIG-Role-SLP-JennyGlass"
          }
        ],
        "hasMember": [
          {
            "reference": "Observation/FPIG-CSC-Hospital-MOCA-1-Ob-Question-1"
          }
        ],
        "derivedFrom": [
          {
            "reference": "QuestionnaireResponse/FPIG-QResponse-Hospital-MOCA-1"
          }
        ],
        "resourceType": "Observation"
      },
      "request": {
        "method": "PUT",
        "url": "Observation/FPIG-CSC-Hospital-MOCA-1"
      }
    },
    {
      "fullUrl": "Location/FPIG-Org-Loc-01",
      "resource": {
        "id": "FPIG-Org-Loc-01",
        "status": "active",
        "name": "San Antonio General Hospital",
        "address": {
          "text": "26022 Meadowlark Bay, San Antonio, TX 78260"
        },
        "resourceType": "Location"
      },
      "request": {
        "method": "PUT",
        "url": "Location/FPIG-Org-Loc-01"
      }
    },
    {
      "fullUrl": "Observation/FPIG-CSC-SNF-PHQ9-1-Ob-Question-28",
      "resource": {
        "id": "FPIG-CSC-SNF-PHQ9-1-Ob-Question-28",
        "meta": {
          "profile": [
            "http://hl7.org/fhir/us/pacio-fp/StructureDefinition/fp-observation"
          ]
        },
        "extension": [
          {
            "url": "http://hl7.org/fhir/us/pacio-fp/StructureDefinition/event-location",
            "valueReference": {
              "reference": "Location/FPIG-Org-Loc-03"
            }
          }
        ],
        "status": "final",
        "category": [
          {
            "coding": [
              {
                "system": "http://hl7.org/fhir/us/pacio-fp/CodeSystem/fp-functioning-cs",
                "code": "functioning",
                "display": "Functioning"
              }
            ]
          },
          {
            "coding": [
              {
                "system": "http://terminology.hl7.org/CodeSystem/observation-category",
                "code": "survey"
              }
            ]
          }
        ],
        "code": {
          "coding": [
            {
              "system": "http://loinc.org",
              "code": "54653-1",
              "display": "Thoughts that you would be better off dead, or of hurting yourself in some way in last 2 weeks.frequency [Reported PHQ-9 CMS]"
            }
          ]
        },
        "subject": {
          "reference": "Patient/FPIG-patientBSJ1"
        },
        "effectiveDateTime": "2020-07-11T11:30:00-05:00",
        "performer": [
          {
            "reference": "PractitionerRole/FPIG-Role-SLP-LunaBaskins"
          }
        ],
        "dataAbsentReason": {
          "coding": [
            {
              "system": "http://terminology.hl7.org/CodeSystem/data-absent-reason",
              "code": "not-asked",
              "display": "Not Asked"
            }
          ]
        },
        "derivedFrom": [
          {
            "reference": "QuestionnaireResponse/FPIG-QResponse-SNF-PHQ9-1"
          }
        ],
        "resourceType": "Observation"
      },
      "request": {
        "method": "PUT",
        "url": "Observation/FPIG-CSC-SNF-PHQ9-1-Ob-Question-28"
      }
    },
    {
      "fullUrl": "Observation/FPIG-CSC-SNF-PHQ9-1-Ob-Question-12",
      "resource": {
        "id": "FPIG-CSC-SNF-PHQ9-1-Ob-Question-12",
        "meta": {
          "profile": [
            "http://hl7.org/fhir/us/pacio-fp/StructureDefinition/fp-observation"
          ]
        },
        "extension": [
          {
            "url": "http://hl7.org/fhir/us/pacio-fp/StructureDefinition/event-location",
            "valueReference": {
              "reference": "Location/FPIG-Org-Loc-03"
            }
          }
        ],
        "status": "final",
        "category": [
          {
            "coding": [
              {
                "system": "http://hl7.org/fhir/us/pacio-fp/CodeSystem/fp-functioning-cs",
                "code": "functioning",
                "display": "Functioning"
              }
            ]
          },
          {
            "coding": [
              {
                "system": "http://terminology.hl7.org/CodeSystem/observation-category",
                "code": "survey"
              }
            ]
          }
        ],
        "code": {
          "coding": [
            {
              "system": "http://loinc.org",
              "code": "54637-4",
              "display": "Little interest or pleasure in doing things in last 2 weeks.frequency [Reported PHQ-9 CMS]"
            }
          ]
        },
        "subject": {
          "reference": "Patient/FPIG-patientBSJ1"
        },
        "effectiveDateTime": "2020-07-11T11:30:00-05:00",
        "performer": [
          {
            "reference": "PractitionerRole/FPIG-Role-SLP-LunaBaskins"
          }
        ],
        "valueCodeableConcept": {
          "coding": [
            {
              "system": "http://loinc.org",
              "code": "LA10998-5",
              "display": "2-6 days (several days)"
            }
          ]
        },
        "derivedFrom": [
          {
            "reference": "QuestionnaireResponse/FPIG-QResponse-SNF-PHQ9-1"
          }
        ],
        "resourceType": "Observation"
      },
      "request": {
        "method": "PUT",
        "url": "Observation/FPIG-CSC-SNF-PHQ9-1-Ob-Question-12"
      }
    },
    {
      "fullUrl": "Practitioner/Practitioner-LunaBaskins",
      "resource": {
        "id": "Practitioner-LunaBaskins",
        "active": true,
        "name": [
          {
            "text": "Luna Baskins",
            "family": "Baskins",
            "given": [
              "Luna"
            ]
          }
        ],
        "telecom": [
          {
            "system": "phone"
          }
        ],
        "gender": "female",
        "resourceType": "Practitioner"
      },
      "request": {
        "method": "PUT",
        "url": "Practitioner/Practitioner-LunaBaskins"
      }
    },
    {
      "fullUrl": "Practitioner/Practitioner-NoraOlogist",
      "resource": {
        "id": "Practitioner-NoraOlogist",
        "identifier": [
          {
            "system": "http://hl7.org/fhir/sid/us-npi",
            "value": "3668788925"
          }
        ],
        "active": true,
        "name": [
          {
            "text": "Nora Ologist",
            "family": "Ologist",
            "given": [
              "Nora"
            ]
          }
        ],
        "telecom": [
          {
            "system": "phone"
          }
        ],
        "gender": "female",
        "resourceType": "Practitioner"
      },
      "request": {
        "method": "PUT",
        "url": "Practitioner/Practitioner-NoraOlogist"
      }
    },
    {
      "fullUrl": "Device/FPIG-CMS-Device-HearingAid",
      "resource": {
        "id": "FPIG-CMS-Device-HearingAid",
        "deviceName": [
          {
            "name": "Hearing aid",
            "type": "user-friendly-name"
          }
        ],
        "resourceType": "Device"
      },
      "request": {
        "method": "PUT",
        "url": "Device/FPIG-CMS-Device-HearingAid"
      }
    },
    {
      "fullUrl": "Observation/FPIG-CSC-SNF-BIMS-1-Ob-Question-10",
      "resource": {
        "id": "FPIG-CSC-SNF-BIMS-1-Ob-Question-10",
        "meta": {
          "profile": [
            "http://hl7.org/fhir/us/pacio-fp/StructureDefinition/fp-observation"
          ]
        },
        "extension": [
          {
            "url": "http://hl7.org/fhir/us/pacio-fp/StructureDefinition/event-location",
            "valueReference": {
              "reference": "Location/FPIG-Org-Loc-02"
            }
          }
        ],
        "status": "final",
        "category": [
          {
            "coding": [
              {
                "system": "http://hl7.org/fhir/us/pacio-fp/CodeSystem/fp-functioning-cs",
                "code": "functioning",
                "display": "Functioning"
              }
            ]
          },
          {
            "coding": [
              {
                "system": "http://terminology.hl7.org/CodeSystem/observation-category",
                "code": "survey"
              }
            ]
          }
        ],
        "code": {
          "coding": [
            {
              "system": "http://loinc.org",
              "code": "54614-3",
              "display": "Brief Interview for Mental Status - summary score [BIMS]"
            }
          ]
        },
        "subject": {
          "reference": "Patient/FPIG-patientBSJ1"
        },
        "effectiveDateTime": "2020-07-11T11:30:00-05:00",
        "performer": [
          {
            "reference": "PractitionerRole/FPIG-Role-SLP-HoneyJones"
          }
        ],
        "valueQuantity": {
          "value": 9,
          "system": "http://unitsofmeasure.org",
          "code": "{score}"
        },
        "derivedFrom": [
          {
            "reference": "QuestionnaireResponse/FPIG-QResponse-SNF-BIMS-1"
          }
        ],
        "resourceType": "Observation"
      },
      "request": {
        "method": "PUT",
        "url": "Observation/FPIG-CSC-SNF-BIMS-1-Ob-Question-10"
      }
    },
    {
      "fullUrl": "Observation/FPIG-CSC-Hospital-MMSE-1",
      "resource": {
        "id": "FPIG-CSC-Hospital-MMSE-1",
        "meta": {
          "profile": [
            "http://hl7.org/fhir/us/pacio-fp/StructureDefinition/fp-collection"
          ]
        },
        "extension": [
          {
            "url": "http://hl7.org/fhir/us/pacio-fp/StructureDefinition/event-location",
            "valueReference": {
              "reference": "Location/FPIG-Org-Loc-01"
            }
          }
        ],
        "status": "final",
        "category": [
          {
            "coding": [
              {
                "system": "http://hl7.org/fhir/us/pacio-fp/CodeSystem/fp-functioning-cs",
                "code": "functioning",
                "display": "Functioning"
              }
            ]
          },
          {
            "coding": [
              {
                "system": "http://terminology.hl7.org/CodeSystem/observation-category",
                "code": "survey"
              }
            ]
          }
        ],
        "code": {
          "coding": [
            {
              "system": "http://loinc.org",
              "code": "72107-6",
              "display": "Mini-Mental State Examination [MMSE]"
            }
          ],
          "text": "Mini-Mental State Examination [MMSE]"
        },
        "subject": {
          "reference": "Patient/FPIG-patientBSJ1"
        },
        "effectiveDateTime": "2020-07-08T17:32:00-05:00",
        "performer": [
          {
            "reference": "PractitionerRole/FPIG-Role-SLP-JennyGlass"
          }
        ],
        "hasMember": [
          {
            "reference": "Observation/FPIG-CSC-Hospital-MMSE-1-Ob-Question-31"
          }
        ],
        "derivedFrom": [
          {
            "reference": "QuestionnaireResponse/FPIG-QResponse-Hospital-MMSE-1"
          }
        ],
        "resourceType": "Observation"
      },
      "request": {
        "method": "PUT",
        "url": "Observation/FPIG-CSC-Hospital-MMSE-1"
      }
    },
    {
      "fullUrl": "Observation/FPIG-CSC-SNF-PHQ9-1-Ob-Question-13",
      "resource": {
        "id": "FPIG-CSC-SNF-PHQ9-1-Ob-Question-13",
        "meta": {
          "profile": [
            "http://hl7.org/fhir/us/pacio-fp/StructureDefinition/fp-observation"
          ]
        },
        "extension": [
          {
            "url": "http://hl7.org/fhir/us/pacio-fp/StructureDefinition/event-location",
            "valueReference": {
              "reference": "Location/FPIG-Org-Loc-03"
            }
          }
        ],
        "status": "final",
        "category": [
          {
            "coding": [
              {
                "system": "http://hl7.org/fhir/us/pacio-fp/CodeSystem/fp-functioning-cs",
                "code": "functioning",
                "display": "Functioning"
              }
            ]
          },
          {
            "coding": [
              {
                "system": "http://terminology.hl7.org/CodeSystem/observation-category",
                "code": "survey"
              }
            ]
          }
        ],
        "code": {
          "coding": [
            {
              "system": "http://loinc.org",
              "code": "54638-2",
              "display": "Feeling down, depressed or hopeless in last 2 weeks.presence [Reported PHQ-9 CMS]"
            }
          ]
        },
        "subject": {
          "reference": "Patient/FPIG-patientBSJ1"
        },
        "effectiveDateTime": "2020-07-11T11:30:00-05:00",
        "performer": [
          {
            "reference": "PractitionerRole/FPIG-Role-SLP-LunaBaskins"
          }
        ],
        "valueCodeableConcept": {
          "coding": [
            {
              "system": "http://loinc.org",
              "code": "LA33-6",
              "display": "Yes"
            }
          ]
        },
        "derivedFrom": [
          {
            "reference": "QuestionnaireResponse/FPIG-QResponse-SNF-PHQ9-1"
          }
        ],
        "resourceType": "Observation"
      },
      "request": {
        "method": "PUT",
        "url": "Observation/FPIG-CSC-SNF-PHQ9-1-Ob-Question-13"
      }
    },
    {
      "fullUrl": "Observation/FPIG-CSC-SNF-PHQ9-1-Ob-Question-29",
      "resource": {
        "id": "FPIG-CSC-SNF-PHQ9-1-Ob-Question-29",
        "meta": {
          "profile": [
            "http://hl7.org/fhir/us/pacio-fp/StructureDefinition/fp-observation"
          ]
        },
        "extension": [
          {
            "url": "http://hl7.org/fhir/us/pacio-fp/StructureDefinition/event-location",
            "valueReference": {
              "reference": "Location/FPIG-Org-Loc-03"
            }
          }
        ],
        "status": "final",
        "category": [
          {
            "coding": [
              {
                "system": "http://hl7.org/fhir/us/pacio-fp/CodeSystem/fp-functioning-cs",
                "code": "functioning",
                "display": "Functioning"
              }
            ]
          },
          {
            "coding": [
              {
                "system": "http://terminology.hl7.org/CodeSystem/observation-category",
                "code": "survey"
              }
            ]
          }
        ],
        "code": {
          "coding": [
            {
              "system": "http://loinc.org",
              "code": "54654-9",
              "display": "Mood interview total severity score [Reported PHQ-9 CMS]"
            }
          ]
        },
        "subject": {
          "reference": "Patient/FPIG-patientBSJ1"
        },
        "effectiveDateTime": "2020-07-11T11:30:00-05:00",
        "performer": [
          {
            "reference": "PractitionerRole/FPIG-Role-SLP-LunaBaskins"
          }
        ],
        "valueQuantity": {
          "value": 3,
          "system": "http://unitsofmeasure.org",
          "code": "{score}"
        },
        "derivedFrom": [
          {
            "reference": "QuestionnaireResponse/FPIG-QResponse-SNF-PHQ9-1"
          }
        ],
        "resourceType": "Observation"
      },
      "request": {
        "method": "PUT",
        "url": "Observation/FPIG-CSC-SNF-PHQ9-1-Ob-Question-29"
      }
    },
    {
      "fullUrl": "DeviceUseStatement/FPIG-CSC-SNF-BIMS-1-UseOfDevice-2",
      "resource": {
        "id": "FPIG-CSC-SNF-BIMS-1-UseOfDevice-2",
        "meta": {
          "profile": [
            "http://hl7.org/fhir/us/pacio-fp/StructureDefinition/fp-use-of-device"
          ]
        },
        "status": "active",
        "subject": {
          "reference": "Patient/FPIG-patientBSJ1"
        },
        "derivedFrom": [
          {
            "reference": "Observation/FPIG-CSC-SNF-BIMS-1"
          }
        ],
        "recordedOn": "2020-07-11T11:30:00-05:00",
        "source": {
          "reference": "FPIG-Practitioner-HoneyJones"
        },
        "device": {
          "reference": "Device/FPIG-CMS-Device-HearingAid"
        },
        "resourceType": "DeviceUseStatement"
      },
      "request": {
        "method": "PUT",
        "url": "DeviceUseStatement/FPIG-CSC-SNF-BIMS-1-UseOfDevice-2"
      }
    },
    {
      "fullUrl": "Observation/FPIG-CSC-SNF-PHQ9-1-Ob-Question-25",
      "resource": {
        "id": "FPIG-CSC-SNF-PHQ9-1-Ob-Question-25",
        "meta": {
          "profile": [
            "http://hl7.org/fhir/us/pacio-fp/StructureDefinition/fp-observation"
          ]
        },
        "extension": [
          {
            "url": "http://hl7.org/fhir/us/pacio-fp/StructureDefinition/event-location",
            "valueReference": {
              "reference": "Location/FPIG-Org-Loc-03"
            }
          }
        ],
        "status": "final",
        "category": [
          {
            "coding": [
              {
                "system": "http://hl7.org/fhir/us/pacio-fp/CodeSystem/fp-functioning-cs",
                "code": "functioning",
                "display": "Functioning"
              }
            ]
          },
          {
            "coding": [
              {
                "system": "http://terminology.hl7.org/CodeSystem/observation-category",
                "code": "survey"
              }
            ]
          }
        ],
        "code": {
          "coding": [
            {
              "system": "http://loinc.org",
              "code": "54650-7",
              "display": "Moving or speaking so slowly that other people could have noticed. Or the opposite - being so fidgety or restless that you have been moving around a lot more than usual in last 2 weeks.presence [Reported PHQ-9 CMS]"
            }
          ]
        },
        "subject": {
          "reference": "Patient/FPIG-patientBSJ1"
        },
        "effectiveDateTime": "2020-07-11T11:30:00-05:00",
        "performer": [
          {
            "reference": "PractitionerRole/FPIG-Role-SLP-LunaBaskins"
          }
        ],
        "valueCodeableConcept": {
          "coding": [
            {
              "system": "http://loinc.org",
              "code": "LA32-8",
              "display": "No"
            }
          ]
        },
        "derivedFrom": [
          {
            "reference": "QuestionnaireResponse/FPIG-QResponse-SNF-PHQ9-1"
          }
        ],
        "resourceType": "Observation"
      },
      "request": {
        "method": "PUT",
        "url": "Observation/FPIG-CSC-SNF-PHQ9-1-Ob-Question-25"
      }
    },
    {
      "fullUrl": "PractitionerRole/FPIG-Role-SLP-JennyGlass",
      "resource": {
        "id": "FPIG-Role-SLP-JennyGlass",
        "active": true,
        "organization": {
          "reference": "Organization/FPIG-Org-01"
        },
        "code": [
          {
            "coding": [
              {
                "system": "http://snomed.info/sct",
                "code": "159026005",
                "display": "Speech and language therapist"
              }
            ]
          }
        ],
        "location": [
          {
            "reference": "Location/FPIG-Org-Loc-01"
          }
        ],
        "resourceType": "PractitionerRole"
      },
      "request": {
        "method": "PUT",
        "url": "PractitionerRole/FPIG-Role-SLP-JennyGlass"
      }
    },
    {
      "fullUrl": "QuestionnaireResponse/FPIG-QResponse-Hospital-MMSE-1",
      "resource": {
        "id": "FPIG-QResponse-Hospital-MMSE-1",
        "meta": {
          "profile": [
            "http://hl7.org/fhir/uv/sdc/StructureDefinition/sdc-questionnaireresponse"
          ]
        },
        "text": {
          "status": "generated",
          "div": "<div xmlns=\"http://www.w3.org/1999/xhtml\"><p><b>Generated Narrative</b></p><p><b>questionnaire</b>: <a href=\"http://example.org/Questionnaire/MDS3.0-NC-1.17\">http://example.org/Questionnaire/MDS3.0-NC-1.17</a></p><p><b>status</b>: completed</p><p><b>subject</b>: <a href=\"Patient-patientBSJ1.html\">Generated Summary: Betsy Smith-Johnson</a></p><p><b>authored</b>: Jul 8, 2020 10:32:00 PM</p><p><b>author</b>: <a href=\"PractitionerRole-Role-SLP-JennyGlass.html\">Generated Summary: active: true; <span title=\"Codes: {http://snomed.info/sct 159026005}\">Speech and language therapist</span></a></p><blockquote><p><b>item</b></p><p><b>linkId</b>: MMSE</p><p><b>text</b>: Mini-Mental State Examination [MMSE]</p><blockquote><p><b>item</b></p><p><b>linkId</b>: MMSE/ToTalScore</p><p><b>text</b>: MMSE Total Score</p></blockquote></blockquote></div>"
        },
        "questionnaire": "http://example.org/Questionnaire/MDS3.0-NC-1.17",
        "status": "completed",
        "subject": {
          "reference": "Patient/FPIG-patientBSJ1"
        },
        "authored": "2020-07-08T17:32:00-05:00",
        "author": {
          "reference": "PractitionerRole/Role-SLP-JennyGlass"
        },
        "item": [
          {
            "linkId": "MMSE",
            "text": "Mini-Mental State Examination [MMSE]",
            "item": [
              {
                "linkId": "MMSE/ToTalScore",
                "text": "MMSE Total Score",
                "answer": [
                  {
                    "valueQuantity": {
                      "value": 20,
                      "system": "http://unitsofmeasure.org",
                      "code": "{score}"
                    }
                  }
                ]
              }
            ]
          }
        ],
        "resourceType": "QuestionnaireResponse"
      },
      "request": {
        "method": "PUT",
        "url": "QuestionnaireResponse/FPIG-QResponse-Hospital-MMSE-1"
      }
    },
    {
      "fullUrl": "Observation/FPIG-CSC-SNF-PHQ9-1-Ob-Question-14",
      "resource": {
        "id": "FPIG-CSC-SNF-PHQ9-1-Ob-Question-14",
        "meta": {
          "profile": [
            "http://hl7.org/fhir/us/pacio-fp/StructureDefinition/fp-observation"
          ]
        },
        "extension": [
          {
            "url": "http://hl7.org/fhir/us/pacio-fp/StructureDefinition/event-location",
            "valueReference": {
              "reference": "Location/FPIG-Org-Loc-03"
            }
          }
        ],
        "status": "final",
        "category": [
          {
            "coding": [
              {
                "system": "http://hl7.org/fhir/us/pacio-fp/CodeSystem/fp-functioning-cs",
                "code": "functioning",
                "display": "Functioning"
              }
            ]
          },
          {
            "coding": [
              {
                "system": "http://terminology.hl7.org/CodeSystem/observation-category",
                "code": "survey"
              }
            ]
          }
        ],
        "code": {
          "coding": [
            {
              "system": "http://loinc.org",
              "code": "54639-0",
              "display": "Feeling down, depressed or hopeless in last 2 weeks.frequency [Reported PHQ-9 CMS]"
            }
          ]
        },
        "subject": {
          "reference": "Patient/FPIG-patientBSJ1"
        },
        "effectiveDateTime": "2020-07-11T11:30:00-05:00",
        "performer": [
          {
            "reference": "PractitionerRole/FPIG-Role-SLP-LunaBaskins"
          }
        ],
        "valueCodeableConcept": {
          "coding": [
            {
              "system": "http://loinc.org",
              "code": "LA10998-5",
              "display": "2-6 days (several days)"
            }
          ]
        },
        "derivedFrom": [
          {
            "reference": "QuestionnaireResponse/FPIG-QResponse-SNF-PHQ9-1"
          }
        ],
        "resourceType": "Observation"
      },
      "request": {
        "method": "PUT",
        "url": "Observation/FPIG-CSC-SNF-PHQ9-1-Ob-Question-14"
      }
    },
    {
      "fullUrl": "Organization/FPIG-provider-org-01",
      "resource": {
        "id": "FPIG-provider-org-01",
        "name": "Primary Care INC.",
        "resourceType": "Organization"
      },
      "request": {
        "method": "PUT",
        "url": "Organization/FPIG-provider-org-01"
      }
    },
    {
      "fullUrl": "Observation/FPIG-CSC-SNF-BIMS-1-Ob-Question-6",
      "resource": {
        "id": "FPIG-CSC-SNF-BIMS-1-Ob-Question-6",
        "meta": {
          "profile": [
            "http://hl7.org/fhir/us/pacio-fp/StructureDefinition/fp-observation"
          ]
        },
        "extension": [
          {
            "url": "http://hl7.org/fhir/us/pacio-fp/StructureDefinition/event-location",
            "valueReference": {
              "reference": "Location/FPIG-Org-Loc-02"
            }
          }
        ],
        "status": "final",
        "category": [
          {
            "coding": [
              {
                "system": "http://hl7.org/fhir/us/pacio-fp/CodeSystem/fp-functioning-cs",
                "code": "functioning",
                "display": "Functioning"
              }
            ]
          },
          {
            "coding": [
              {
                "system": "http://terminology.hl7.org/CodeSystem/observation-category",
                "code": "survey"
              }
            ]
          }
        ],
        "code": {
          "coding": [
            {
              "system": "http://loinc.org",
              "code": "54609-3",
              "display": "Temporal orientation - current day of the week [BIMS]"
            }
          ]
        },
        "subject": {
          "reference": "Patient/FPIG-patientBSJ1"
        },
        "effectiveDateTime": "2020-07-11T11:30:00-05:00",
        "performer": [
          {
            "reference": "PractitionerRole/FPIG-Role-SLP-HoneyJones"
          }
        ],
        "valueCodeableConcept": {
          "coding": [
            {
              "system": "http://loinc.org",
              "code": "LA9960-1",
              "display": "Correct"
            }
          ]
        },
        "derivedFrom": [
          {
            "reference": "QuestionnaireResponse/FPIG-QResponse-SNF-BIMS-1"
          }
        ],
        "resourceType": "Observation"
      },
      "request": {
        "method": "PUT",
        "url": "Observation/FPIG-CSC-SNF-BIMS-1-Ob-Question-6"
      }
    },
    {
      "fullUrl": "Observation/FPIG-CSC-SNF-PHQ9-1-Ob-Question-22",
      "resource": {
        "id": "FPIG-CSC-SNF-PHQ9-1-Ob-Question-22",
        "meta": {
          "profile": [
            "http://hl7.org/fhir/us/pacio-fp/StructureDefinition/fp-observation"
          ]
        },
        "extension": [
          {
            "url": "http://hl7.org/fhir/us/pacio-fp/StructureDefinition/event-location",
            "valueReference": {
              "reference": "Location/FPIG-Org-Loc-03"
            }
          }
        ],
        "status": "final",
        "category": [
          {
            "coding": [
              {
                "system": "http://hl7.org/fhir/us/pacio-fp/CodeSystem/fp-functioning-cs",
                "code": "functioning",
                "display": "Functioning"
              }
            ]
          },
          {
            "coding": [
              {
                "system": "http://terminology.hl7.org/CodeSystem/observation-category",
                "code": "survey"
              }
            ]
          }
        ],
        "code": {
          "coding": [
            {
              "system": "http://loinc.org",
              "code": "54647-3",
              "display": "Feeling bad about yourself - or that you are a failure or have let yourself or your family down in last 2 weeks.frequency [Reported PHQ-9 CMS]"
            }
          ]
        },
        "subject": {
          "reference": "Patient/FPIG-patientBSJ1"
        },
        "effectiveDateTime": "2020-07-11T11:30:00-05:00",
        "performer": [
          {
            "reference": "PractitionerRole/FPIG-Role-SLP-LunaBaskins"
          }
        ],
        "valueCodeableConcept": {
          "coding": [
            {
              "system": "http://loinc.org",
              "code": "LA10997-7",
              "display": "Never or 1 day"
            }
          ]
        },
        "derivedFrom": [
          {
            "reference": "QuestionnaireResponse/FPIG-QResponse-SNF-PHQ9-1"
          }
        ],
        "resourceType": "Observation"
      },
      "request": {
        "method": "PUT",
        "url": "Observation/FPIG-CSC-SNF-PHQ9-1-Ob-Question-22"
      }
    },
    {
      "fullUrl": "Observation/FPIG-CSC-SNF-PHQ9-1-Ob-Question-18",
      "resource": {
        "id": "FPIG-CSC-SNF-PHQ9-1-Ob-Question-18",
        "meta": {
          "profile": [
            "http://hl7.org/fhir/us/pacio-fp/StructureDefinition/fp-observation"
          ]
        },
        "extension": [
          {
            "url": "http://hl7.org/fhir/us/pacio-fp/StructureDefinition/event-location",
            "valueReference": {
              "reference": "Location/FPIG-Org-Loc-03"
            }
          }
        ],
        "status": "final",
        "category": [
          {
            "coding": [
              {
                "system": "http://hl7.org/fhir/us/pacio-fp/CodeSystem/fp-functioning-cs",
                "code": "functioning",
                "display": "Functioning"
              }
            ]
          },
          {
            "coding": [
              {
                "system": "http://terminology.hl7.org/CodeSystem/observation-category",
                "code": "survey"
              }
            ]
          }
        ],
        "code": {
          "coding": [
            {
              "system": "http://loinc.org",
              "code": "54643-2",
              "display": "Feeling tired or having little energy in last 2 weeks.frequency [Reported PHQ-9 CMS]"
            }
          ]
        },
        "subject": {
          "reference": "Patient/FPIG-patientBSJ1"
        },
        "effectiveDateTime": "2020-07-11T11:30:00-05:00",
        "performer": [
          {
            "reference": "PractitionerRole/FPIG-Role-SLP-LunaBaskins"
          }
        ],
        "valueCodeableConcept": {
          "coding": [
            {
              "system": "http://loinc.org",
              "code": "LA10997-7",
              "display": "Never or 1 day"
            }
          ]
        },
        "derivedFrom": [
          {
            "reference": "QuestionnaireResponse/FPIG-QResponse-SNF-PHQ9-1"
          }
        ],
        "resourceType": "Observation"
      },
      "request": {
        "method": "PUT",
        "url": "Observation/FPIG-CSC-SNF-PHQ9-1-Ob-Question-18"
      }
    },
    {
      "fullUrl": "Observation/FPIG-CSC-SNF-BIMS-1",
      "resource": {
        "id": "FPIG-CSC-SNF-BIMS-1",
        "meta": {
          "profile": [
            "http://hl7.org/fhir/us/pacio-fp/StructureDefinition/fp-collection"
          ]
        },
        "extension": [
          {
            "url": "http://hl7.org/fhir/us/pacio-fp/StructureDefinition/event-location",
            "valueReference": {
              "reference": "Location/FPIG-Org-Loc-02"
            }
          },
          {
            "url": "http://hl7.org/fhir/us/pacio-fp/StructureDefinition/device-patient-used",
            "valueReference": {
              "reference": "DeviceUseStatement/FPIG-CSC-SNF-BIMS-1-UseOfDevice-1"
            }
          },
          {
            "url": "http://hl7.org/fhir/us/pacio-fp/StructureDefinition/device-patient-used",
            "valueReference": {
              "reference": "DeviceUseStatement/FPIG-CSC-SNF-BIMS-1-UseOfDevice-2"
            }
          }
        ],
        "status": "final",
        "category": [
          {
            "coding": [
              {
                "system": "http://hl7.org/fhir/us/pacio-fp/CodeSystem/fp-functioning-cs",
                "code": "functioning",
                "display": "Functioning"
              }
            ]
          },
          {
            "coding": [
              {
                "system": "http://terminology.hl7.org/CodeSystem/observation-category",
                "code": "survey"
              }
            ]
          }
        ],
        "code": {
          "coding": [
            {
              "system": "http://loinc.org",
              "code": "52491-8",
              "display": "Brief interview for mental status [BIMS]"
            }
          ],
          "text": "Brief interview for mental status [BIMS]"
        },
        "subject": {
          "reference": "Patient/FPIG-patientBSJ1"
        },
        "effectiveDateTime": "2020-07-11T11:30:00-05:00",
        "performer": [
          {
            "reference": "PractitionerRole/FPIG-Role-SLP-HoneyJones"
          }
        ],
        "hasMember": [
          {
            "reference": "Observation/FPIG-CSC-SNF-BIMS-1-Ob-Question-3"
          },
          {
            "reference": "Observation/FPIG-CSC-SNF-BIMS-1-Ob-Question-4"
          },
          {
            "reference": "Observation/FPIG-CSC-SNF-BIMS-1-Ob-Question-5"
          },
          {
            "reference": "Observation/FPIG-CSC-SNF-BIMS-1-Ob-Question-6"
          },
          {
            "reference": "Observation/FPIG-CSC-SNF-BIMS-1-Ob-Question-7"
          },
          {
            "reference": "Observation/FPIG-CSC-SNF-BIMS-1-Ob-Question-8"
          },
          {
            "reference": "Observation/FPIG-CSC-SNF-BIMS-1-Ob-Question-9"
          },
          {
            "reference": "Observation/FPIG-CSC-SNF-BIMS-1-Ob-Question-10"
          }
        ],
        "derivedFrom": [
          {
            "reference": "QuestionnaireResponse/FPIG-QResponse-SNF-BIMS-1"
          }
        ],
        "resourceType": "Observation"
      },
      "request": {
        "method": "PUT",
        "url": "Observation/FPIG-CSC-SNF-BIMS-1"
      }
    },
    {
      "fullUrl": "QuestionnaireResponse/FPIG-QResponse-Hospital-MOCA-1",
      "resource": {
        "id": "FPIG-QResponse-Hospital-MOCA-1",
        "meta": {
          "profile": [
            "http://hl7.org/fhir/uv/sdc/StructureDefinition/sdc-questionnaireresponse"
          ]
        },
        "text": {
          "status": "generated",
          "div": "<div xmlns=\"http://www.w3.org/1999/xhtml\"><p><b>Generated Narrative</b></p><p><b>questionnaire</b>: <a href=\"http://example.org/Questionnaire/MDS3.0-NC-1.17\">http://example.org/Questionnaire/MDS3.0-NC-1.17</a></p><p><b>status</b>: completed</p><p><b>subject</b>: <a href=\"Patient-patientBSJ1.html\">Generated Summary: Betsy Smith-Johnson</a></p><p><b>authored</b>: Jul 8, 2020 10:32:00 PM</p><p><b>author</b>: <a href=\"PractitionerRole-Role-SLP-JennyGlass.html\">Generated Summary: active: true; <span title=\"Codes: {http://snomed.info/sct 159026005}\">Speech and language therapist</span></a></p><blockquote><p><b>item</b></p><p><b>linkId</b>: MoCA</p><p><b>text</b>: Montreal Cognitive Assessment [MoCA]</p><blockquote><p><b>item</b></p><p><b>linkId</b>: MoCA/TotalScore</p><p><b>text</b>: Total score [MoCA]</p></blockquote></blockquote></div>"
        },
        "questionnaire": "http://example.org/Questionnaire/MDS3.0-NC-1.17",
        "status": "completed",
        "subject": {
          "reference": "Patient/FPIG-patientBSJ1"
        },
        "authored": "2020-07-08T17:32:00-05:00",
        "author": {
          "reference": "PractitionerRole/Role-SLP-JennyGlass"
        },
        "item": [
          {
            "linkId": "MoCA",
            "text": "Montreal Cognitive Assessment [MoCA]",
            "item": [
              {
                "linkId": "MoCA/TotalScore",
                "text": "Total score [MoCA]",
                "answer": [
                  {
                    "valueQuantity": {
                      "value": 18,
                      "system": "http://unitsofmeasure.org",
                      "code": "{score}"
                    }
                  }
                ]
              }
            ]
          }
        ],
        "resourceType": "QuestionnaireResponse"
      },
      "request": {
        "method": "PUT",
        "url": "QuestionnaireResponse/FPIG-QResponse-Hospital-MOCA-1"
      }
    },
    {
      "fullUrl": "Organization/FPIG-Org-01",
      "resource": {
        "id": "FPIG-Org-01",
        "name": "San Antonio General Hospital",
        "resourceType": "Organization"
      },
      "request": {
        "method": "PUT",
        "url": "Organization/FPIG-Org-01"
      }
    },
    {
      "fullUrl": "Observation/FPIG-CSC-SNF-PHQ9-1-Ob-Question-19",
      "resource": {
        "id": "FPIG-CSC-SNF-PHQ9-1-Ob-Question-19",
        "meta": {
          "profile": [
            "http://hl7.org/fhir/us/pacio-fp/StructureDefinition/fp-observation"
          ]
        },
        "extension": [
          {
            "url": "http://hl7.org/fhir/us/pacio-fp/StructureDefinition/event-location",
            "valueReference": {
              "reference": "Location/FPIG-Org-Loc-03"
            }
          }
        ],
        "status": "final",
        "category": [
          {
            "coding": [
              {
                "system": "http://hl7.org/fhir/us/pacio-fp/CodeSystem/fp-functioning-cs",
                "code": "functioning",
                "display": "Functioning"
              }
            ]
          },
          {
            "coding": [
              {
                "system": "http://terminology.hl7.org/CodeSystem/observation-category",
                "code": "survey"
              }
            ]
          }
        ],
        "code": {
          "coding": [
            {
              "system": "http://loinc.org",
              "code": "54644-0",
              "display": "Poor appetite or overeating in last 2 weeks.presence [Reported PHQ-9 CMS]"
            }
          ]
        },
        "subject": {
          "reference": "Patient/FPIG-patientBSJ1"
        },
        "effectiveDateTime": "2020-07-11T11:30:00-05:00",
        "performer": [
          {
            "reference": "PractitionerRole/FPIG-Role-SLP-LunaBaskins"
          }
        ],
        "valueCodeableConcept": {
          "coding": [
            {
              "system": "http://loinc.org",
              "code": "LA32-8",
              "display": "No"
            }
          ]
        },
        "derivedFrom": [
          {
            "reference": "QuestionnaireResponse/FPIG-QResponse-SNF-PHQ9-1"
          }
        ],
        "resourceType": "Observation"
      },
      "request": {
        "method": "PUT",
        "url": "Observation/FPIG-CSC-SNF-PHQ9-1-Ob-Question-19"
      }
    },
    {
      "fullUrl": "Patient/FPIG-patientBSJ1",
      "resource": {
        "id": "FPIG-patientBSJ1",
        "meta": {
          "profile": [
            "http://hl7.org/fhir/us/core/StructureDefinition/us-core-patient"
          ]
        },
        "active": true,
        "name": [
          {
            "text": "Betsy Smith-Johnson",
            "family": "Smith-Johnson",
            "given": [
              "Betsy"
            ]
          }
        ],
        "telecom": [
          {
            "system": "phone",
            "use": "mobile"
          }
        ],
        "contact": [
          {
            "telecom": [
              {
                "system": "phone"
              }
            ]
          }
        ],
        "communication": [
          {
            "preferred": true
          }
        ],
        "resourceType": "Patient"
      },
      "request": {
        "method": "PUT",
        "url": "Patient/FPIG-patientBSJ1"
      }
    },
    {
      "fullUrl": "Organization/FPIG-provider-org-16",
      "resource": {
        "id": "FPIG-provider-org-16",
        "name": "Neuro Care INC.",
        "resourceType": "Organization"
      },
      "request": {
        "method": "PUT",
        "url": "Organization/FPIG-provider-org-16"
      }
    },
    {
      "fullUrl": "Observation/FPIG-CSC-SNF-PHQ9-1-Ob-Question-23",
      "resource": {
        "id": "FPIG-CSC-SNF-PHQ9-1-Ob-Question-23",
        "meta": {
          "profile": [
            "http://hl7.org/fhir/us/pacio-fp/StructureDefinition/fp-observation"
          ]
        },
        "extension": [
          {
            "url": "http://hl7.org/fhir/us/pacio-fp/StructureDefinition/event-location",
            "valueReference": {
              "reference": "Location/FPIG-Org-Loc-03"
            }
          }
        ],
        "status": "final",
        "category": [
          {
            "coding": [
              {
                "system": "http://hl7.org/fhir/us/pacio-fp/CodeSystem/fp-functioning-cs",
                "code": "functioning",
                "display": "Functioning"
              }
            ]
          },
          {
            "coding": [
              {
                "system": "http://terminology.hl7.org/CodeSystem/observation-category",
                "code": "survey"
              }
            ]
          }
        ],
        "code": {
          "coding": [
            {
              "system": "http://loinc.org",
              "code": "54648-1",
              "display": "Trouble concentrating on things, such as reading the newspaper or watching television in last 2 weeks.presence [Reported PHQ-9 CMS]"
            }
          ]
        },
        "subject": {
          "reference": "Patient/FPIG-patientBSJ1"
        },
        "effectiveDateTime": "2020-07-11T11:30:00-05:00",
        "performer": [
          {
            "reference": "PractitionerRole/FPIG-Role-SLP-LunaBaskins"
          }
        ],
        "valueCodeableConcept": {
          "coding": [
            {
              "system": "http://loinc.org",
              "code": "LA32-8",
              "display": "No"
            }
          ]
        },
        "derivedFrom": [
          {
            "reference": "QuestionnaireResponse/FPIG-QResponse-SNF-PHQ9-1"
          }
        ],
        "resourceType": "Observation"
      },
      "request": {
        "method": "PUT",
        "url": "Observation/FPIG-CSC-SNF-PHQ9-1-Ob-Question-23"
      }
    },
    {
      "fullUrl": "Observation/FPIG-CSC-SNF-BIMS-1-Ob-Question-7",
      "resource": {
        "id": "FPIG-CSC-SNF-BIMS-1-Ob-Question-7",
        "meta": {
          "profile": [
            "http://hl7.org/fhir/us/pacio-fp/StructureDefinition/fp-observation"
          ]
        },
        "extension": [
          {
            "url": "http://hl7.org/fhir/us/pacio-fp/StructureDefinition/event-location",
            "valueReference": {
              "reference": "Location/FPIG-Org-Loc-02"
            }
          }
        ],
        "status": "final",
        "category": [
          {
            "coding": [
              {
                "system": "http://hl7.org/fhir/us/pacio-fp/CodeSystem/fp-functioning-cs",
                "code": "functioning",
                "display": "Functioning"
              }
            ]
          },
          {
            "coding": [
              {
                "system": "http://terminology.hl7.org/CodeSystem/observation-category",
                "code": "survey"
              }
            ]
          }
        ],
        "code": {
          "coding": [
            {
              "system": "http://loinc.org",
              "code": "52735-8",
              "display": "Recall - sock [BIMS]"
            }
          ]
        },
        "subject": {
          "reference": "Patient/FPIG-patientBSJ1"
        },
        "effectiveDateTime": "2020-07-11T11:30:00-05:00",
        "performer": [
          {
            "reference": "PractitionerRole/FPIG-Role-SLP-HoneyJones"
          }
        ],
        "valueCodeableConcept": {
          "coding": [
            {
              "system": "http://loinc.org",
              "code": "LA10126-3",
              "display": "Yes, after cueing ('something to wear')"
            }
          ]
        },
        "derivedFrom": [
          {
            "reference": "QuestionnaireResponse/FPIG-QResponse-SNF-BIMS-1"
          }
        ],
        "resourceType": "Observation"
      },
      "request": {
        "method": "PUT",
        "url": "Observation/FPIG-CSC-SNF-BIMS-1-Ob-Question-7"
      }
    },
    {
      "fullUrl": "PractitionerRole/FPIG-Role-SLP-HoneyJones",
      "resource": {
        "id": "FPIG-Role-SLP-HoneyJones",
        "active": true,
        "organization": {
          "reference": "Organization/FPIG-Org-02"
        },
        "code": [
          {
            "coding": [
              {
                "system": "http://snomed.info/sct",
                "code": "159026005",
                "display": "Speech and language therapist"
              }
            ]
          }
        ],
        "location": [
          {
            "reference": "Location/FPIG-Org-Loc-02"
          }
        ],
        "resourceType": "PractitionerRole"
      },
      "request": {
        "method": "PUT",
        "url": "PractitionerRole/FPIG-Role-SLP-HoneyJones"
      }
    },
    {
      "fullUrl": "Observation/FPIG-CSC-SNF-PHQ9-1-Ob-Question-15",
      "resource": {
        "id": "FPIG-CSC-SNF-PHQ9-1-Ob-Question-15",
        "meta": {
          "profile": [
            "http://hl7.org/fhir/us/pacio-fp/StructureDefinition/fp-observation"
          ]
        },
        "extension": [
          {
            "url": "http://hl7.org/fhir/us/pacio-fp/StructureDefinition/event-location",
            "valueReference": {
              "reference": "Location/FPIG-Org-Loc-03"
            }
          }
        ],
        "status": "final",
        "category": [
          {
            "coding": [
              {
                "system": "http://hl7.org/fhir/us/pacio-fp/CodeSystem/fp-functioning-cs",
                "code": "functioning",
                "display": "Functioning"
              }
            ]
          },
          {
            "coding": [
              {
                "system": "http://terminology.hl7.org/CodeSystem/observation-category",
                "code": "survey"
              }
            ]
          }
        ],
        "code": {
          "coding": [
            {
              "system": "http://loinc.org",
              "code": "54640-8",
              "display": "Trouble falling or staying asleep, or sleeping too much in last 2 weeks.presence [Reported PHQ-9 CMS]"
            }
          ]
        },
        "subject": {
          "reference": "Patient/FPIG-patientBSJ1"
        },
        "effectiveDateTime": "2020-07-11T11:30:00-05:00",
        "performer": [
          {
            "reference": "PractitionerRole/FPIG-Role-SLP-LunaBaskins"
          }
        ],
        "valueCodeableConcept": {
          "coding": [
            {
              "system": "http://loinc.org",
              "code": "LA33-6",
              "display": "Yes"
            }
          ]
        },
        "derivedFrom": [
          {
            "reference": "QuestionnaireResponse/FPIG-QResponse-SNF-PHQ9-1"
          }
        ],
        "resourceType": "Observation"
      },
      "request": {
        "method": "PUT",
        "url": "Observation/FPIG-CSC-SNF-PHQ9-1-Ob-Question-15"
      }
    }
  ],
  "resourceType": "Bundle"
}