{
  "type": "transaction",
  "entry": [
    {
      "fullUrl": "Observation/CSC-SNF-PHQ9-1-Ob-Question-16",
      "resource": {
        "id": "CSC-SNF-PHQ9-1-Ob-Question-16",
        "meta": {
          "profile": [
            "http://hl7.org/fhir/us/pacio-cs/StructureDefinition/pacio-cs"
          ]
        },
        "text": {
          "status": "extensions",
          "div": "<div xmlns=\"http://www.w3.org/1999/xhtml\"><p><b>Generated Narrative</b></p><p><b>ObservationEventLocation</b>: <a href=\"Location-Org-Loc-03.html\">Generated Summary: status: active; name: Sky Harbor Home Health Services</a></p><p></p><p><b>category</b>: <span title=\"Codes: {http://hl7.org/fhir/us/pacio-cs/CodeSystem/pacio-cat-cs functioning}\">Functioning</span>, <span title=\"Codes: {http://terminology.hl7.org/CodeSystem/observation-category survey}\">Survey</span></p><p><b>code</b>: <span title=\"Codes: {http://loinc.org 54641-6}\">Trouble falling or staying asleep</span></p><p><b>subject</b>: <a href=\"Patient-patientBSJ1.html\">Generated Summary: Betsy Smith-Johnson</a></p><p><b>effective</b>: Jul 11, 2020 4:30:00 PM</p><p><b>performer</b>: <a href=\"PractitionerRole-Role-SLP-LunaBaskins.html\">Generated Summary: active: true; <span title=\"Codes: {http://snomed.info/sct 159026005}\">Speech and language therapist</span></a></p><p><b>value</b>: <span title=\"Codes: {http://loinc.org LA10998-5}\">2-6 days (several days)</span></p><p><b>derivedFrom</b>: <a href=\"QuestionnaireResponse-QResponse-SNF-PHQ9-1.html\">Generated Summary: questionnaire: http://example.org/Questionnaire/MDS3.0-NC-1.17; status: completed; authored: Jul 11, 2020 4:30:00 PM</a></p></div>"
        },
        "extension": [
          {
            "url": "http://hl7.org/fhir/us/pacio-cs/StructureDefinition/event-location",
            "valueReference": {
              "reference": "Location/Org-Loc-03"
            }
          }
        ],
        "status": "final",
        "category": [
          {
            "coding": [
              {
                "system": "http://hl7.org/fhir/us/pacio-cs/CodeSystem/pacio-cat-cs",
                "code": "functioning",
                "display": "Functioning"
              }
            ]
          },
          {
            "coding": [
              {
                "system": "http://terminology.hl7.org/CodeSystem/observation-category",
                "code": "survey"
              }
            ]
          }
        ],
        "code": {
          "coding": [
            {
              "system": "http://loinc.org",
              "code": "54641-6",
              "display": "Trouble falling or staying asleep, or sleeping too much in last 2 weeks.frequency [Reported PHQ-9 CMS]"
            }
          ],
          "text": "Trouble falling or staying asleep"
        },
        "subject": {
          "reference": "Patient/patientBSJ1"
        },
        "effectiveDateTime": "2020-07-11T11:30:00-05:00",
        "performer": [
          {
            "reference": "PractitionerRole/Role-SLP-LunaBaskins"
          }
        ],
        "valueCodeableConcept": {
          "coding": [
            {
              "system": "http://loinc.org",
              "code": "LA10998-5",
              "display": "2-6 days (several days)"
            }
          ],
          "text": "2-6 days (several days)"
        },
        "derivedFrom": [
          {
            "reference": "QuestionnaireResponse/QResponse-SNF-PHQ9-1"
          }
        ],
        "resourceType": "Observation"
      },
      "request": {
        "method": "PUT",
        "url": "Observation/CSC-SNF-PHQ9-1-Ob-Question-16"
      }
    },
    {
      "fullUrl": "Location/provider-org-loc-16",
      "resource": {
        "id": "provider-org-loc-16",
        "text": {
          "status": "generated",
          "div": "<div xmlns=\"http://www.w3.org/1999/xhtml\"><p><b>Generated Narrative</b></p><p><b>status</b>: active</p><p><b>name</b>: Neuro Care INC.</p><p><b>address</b>: 26022 Meadowlark Bay, San Antonio, TX 78260</p></div>"
        },
        "status": "active",
        "name": "Neuro Care INC.",
        "address": {
          "text": "26022 Meadowlark Bay, San Antonio, TX 78260"
        },
        "resourceType": "Location"
      },
      "request": {
        "method": "PUT",
        "url": "Location/provider-org-loc-16"
      }
    },
    {
      "fullUrl": "QuestionnaireResponse/QResponse-SNF-BIMS-1",
      "resource": {
        "id": "QResponse-SNF-BIMS-1",
        "meta": {
          "profile": [
            "http://hl7.org/fhir/uv/sdc/StructureDefinition/sdc-questionnaireresponse"
          ]
        },
        "text": {
          "status": "generated",
          "div": "<div xmlns=\"http://www.w3.org/1999/xhtml\"><p><b>Generated Narrative</b></p><p><b>questionnaire</b>: <a href=\"http://example.org/Questionnaire/MDS3.0-NC-1.17\">http://example.org/Questionnaire/MDS3.0-NC-1.17</a></p><p><b>status</b>: completed</p><p><b>subject</b>: <a href=\"Patient-patientBSJ1.html\">Generated Summary: Betsy Smith-Johnson</a></p><p><b>authored</b>: Jul 11, 2020 4:30:00 PM</p><p><b>author</b>: <a href=\"PractitionerRole-Role-SLP-HoneyJones.html\">Generated Summary: active: true; <span title=\"Codes: {http://snomed.info/sct 159026005}\">Speech and language therapist</span></a></p><blockquote><p><b>item</b></p><p><b>linkId</b>: Section-3</p><p><b>text</b>: MDS v3.0 - RAI v1.17.2 - Cognitive patterns [CMS Assessment]</p><blockquote><p><b>item</b></p><p><b>linkId</b>: Section-3/C0200-C0500</p><p><b>text</b>: Brief interview for mental status [BIMS]</p></blockquote></blockquote></div>"
        },
        "questionnaire": "http://example.org/Questionnaire/MDS3.0-NC-1.17",
        "status": "completed",
        "subject": {
          "reference": "Patient/patientBSJ1"
        },
        "authored": "2020-07-11T11:30:00-05:00",
        "author": {
          "reference": "PractitionerRole/Role-SLP-HoneyJones"
        },
        "item": [
          {
            "linkId": "Section-3",
            "text": "MDS v3.0 - RAI v1.17.2 - Cognitive patterns [CMS Assessment]",
            "item": [
              {
                "linkId": "Section-3/C0200-C0500",
                "text": "Brief interview for mental status [BIMS]",
                "item": [
                  {
                    "linkId": "Section-3/C0200",
                    "text": "Repetition of Three Words. Number of words repeated after first attempt",
                    "answer": [
                      {
                        "valueCoding": {
                          "system": "http://loinc.org",
                          "code": "LA6404-3",
                          "display": "Two"
                        }
                      }
                    ]
                  },
                  {
                    "linkId": "Section-3/C0300",
                    "text": "Temporal orientation (orientation to year, month, and day) [BIMS]",
                    "item": [
                      {
                        "linkId": "Section-3/C0300A",
                        "text": "Able to report correct year",
                        "answer": [
                          {
                            "valueCoding": {
                              "system": "http://loinc.org",
                              "code": "LA10008-3",
                              "display": "Missed by 1 year"
                            }
                          }
                        ]
                      },
                      {
                        "linkId": "Section-3/C0300B",
                        "text": "Able to report correct month",
                        "answer": [
                          {
                            "valueCoding": {
                              "system": "http://loinc.org",
                              "code": "LA10010-9",
                              "display": "Missed by 6 days to 1 month"
                            }
                          }
                        ]
                      },
                      {
                        "linkId": "Section-3/C0300C",
                        "text": "Able to report correct day of the week",
                        "answer": [
                          {
                            "valueCoding": {
                              "system": "http://loinc.org",
                              "code": "LA9960-1",
                              "display": "Correct"
                            }
                          }
                        ]
                      }
                    ]
                  },
                  {
                    "linkId": "Section-3/C0400",
                    "text": "Recall [BIMS]",
                    "item": [
                      {
                        "linkId": "Section-3/C0400A",
                        "text": "Able to recall \"sock\"",
                        "answer": [
                          {
                            "valueCoding": {
                              "system": "http://loinc.org",
                              "code": "LA10126-3",
                              "display": "Yes, after cueing (\"something to wear\")"
                            }
                          }
                        ]
                      },
                      {
                        "linkId": "Section-3/C0400B",
                        "text": "Able to recall \"blue\"",
                        "answer": [
                          {
                            "valueCoding": {
                              "system": "http://loinc.org",
                              "code": "LA10978-7",
                              "display": "Yes, after cueing (\"a color\")"
                            }
                          }
                        ]
                      },
                      {
                        "linkId": "Section-3/C0400C",
                        "text": "Able to recall \"bed\"",
                        "answer": [
                          {
                            "valueCoding": {
                              "system": "http://loinc.org",
                              "code": "LA10125-5",
                              "display": "Yes, after cueing (\"a piece of furniture\")"
                            }
                          }
                        ]
                      }
                    ]
                  },
                  {
                    "linkId": "Section-3/C0500",
                    "text": "BIMS Summary Score",
                    "answer": [
                      {
                        "valueQuantity": {
                          "value": 9,
                          "system": "http://unitsofmeasure.org",
                          "code": "{score}"
                        }
                      }
                    ]
                  }
                ]
              }
            ]
          }
        ],
        "resourceType": "QuestionnaireResponse"
      },
      "request": {
        "method": "PUT",
        "url": "QuestionnaireResponse/QResponse-SNF-BIMS-1"
      }
    },
    {
      "fullUrl": "Organization/provider-org-01",
      "resource": {
        "id": "provider-org-01",
        "text": {
          "status": "generated",
          "div": "<div xmlns=\"http://www.w3.org/1999/xhtml\"><p><b>Generated Narrative</b></p><p><b>name</b>: Primary Care INC.</p></div>"
        },
        "name": "Primary Care INC.",
        "resourceType": "Organization"
      },
      "request": {
        "method": "PUT",
        "url": "Organization/provider-org-01"
      }
    },
    {
      "fullUrl": "Organization/Org-02",
      "resource": {
        "id": "Org-02",
        "text": {
          "status": "generated",
          "div": "<div xmlns=\"http://www.w3.org/1999/xhtml\"><p><b>Generated Narrative</b></p><p><b>name</b>: Happy Nursing Facility</p></div>"
        },
        "name": "Happy Nursing Facility",
        "resourceType": "Organization"
      },
      "request": {
        "method": "PUT",
        "url": "Organization/Org-02"
      }
    },
    {
      "fullUrl": "Observation/CSC-SNF-BIMS-1-Ob-Question-6",
      "resource": {
        "id": "CSC-SNF-BIMS-1-Ob-Question-6",
        "meta": {
          "profile": [
            "http://hl7.org/fhir/us/pacio-cs/StructureDefinition/pacio-cs"
          ]
        },
        "text": {
          "status": "extensions",
          "div": "<div xmlns=\"http://www.w3.org/1999/xhtml\"><p><b>Generated Narrative</b></p><p><b>ObservationEventLocation</b>: <a href=\"Location-Org-Loc-02.html\">Generated Summary: status: active; name: Happy Nursing Facility</a></p><p></p><p><b>category</b>: <span title=\"Codes: {http://hl7.org/fhir/us/pacio-cs/CodeSystem/pacio-cat-cs functioning}\">Functioning</span>, <span title=\"Codes: {http://terminology.hl7.org/CodeSystem/observation-category survey}\">Survey</span></p><p><b>code</b>: <span title=\"Codes: {http://loinc.org 54609-3}\">Able to report correct day of the week</span></p><p><b>subject</b>: <a href=\"Patient-patientBSJ1.html\">Generated Summary: Betsy Smith-Johnson</a></p><p><b>effective</b>: Jul 11, 2020 4:30:00 PM</p><p><b>performer</b>: <a href=\"PractitionerRole-Role-SLP-HoneyJones.html\">Generated Summary: active: true; <span title=\"Codes: {http://snomed.info/sct 159026005}\">Speech and language therapist</span></a></p><p><b>value</b>: <span title=\"Codes: {http://loinc.org LA9960-1}\">Correct</span></p><p><b>derivedFrom</b>: <a href=\"QuestionnaireResponse-QResponse-SNF-BIMS-1.html\">Generated Summary: questionnaire: http://example.org/Questionnaire/MDS3.0-NC-1.17; status: completed; authored: Jul 11, 2020 4:30:00 PM</a></p></div>"
        },
        "extension": [
          {
            "url": "http://hl7.org/fhir/us/pacio-cs/StructureDefinition/event-location",
            "valueReference": {
              "reference": "Location/Org-Loc-02"
            }
          }
        ],
        "status": "final",
        "category": [
          {
            "coding": [
              {
                "system": "http://hl7.org/fhir/us/pacio-cs/CodeSystem/pacio-cat-cs",
                "code": "functioning",
                "display": "Functioning"
              }
            ]
          },
          {
            "coding": [
              {
                "system": "http://terminology.hl7.org/CodeSystem/observation-category",
                "code": "survey"
              }
            ]
          }
        ],
        "code": {
          "coding": [
            {
              "system": "http://loinc.org",
              "code": "54609-3",
              "display": "Temporal orientation - current day of the week [BIMS]"
            }
          ],
          "text": "Able to report correct day of the week"
        },
        "subject": {
          "reference": "Patient/patientBSJ1"
        },
        "effectiveDateTime": "2020-07-11T11:30:00-05:00",
        "performer": [
          {
            "reference": "PractitionerRole/Role-SLP-HoneyJones"
          }
        ],
        "valueCodeableConcept": {
          "coding": [
            {
              "system": "http://loinc.org",
              "code": "LA9960-1",
              "display": "Correct"
            }
          ],
          "text": "Correct"
        },
        "derivedFrom": [
          {
            "reference": "QuestionnaireResponse/QResponse-SNF-BIMS-1"
          }
        ],
        "resourceType": "Observation"
      },
      "request": {
        "method": "PUT",
        "url": "Observation/CSC-SNF-BIMS-1-Ob-Question-6"
      }
    },
    {
      "fullUrl": "Observation/CSC-SNF-CAM-Admission-1-Ob-Question-1",
      "resource": {
        "id": "CSC-SNF-CAM-Admission-1-Ob-Question-1",
        "meta": {
          "profile": [
            "http://hl7.org/fhir/us/pacio-cs/StructureDefinition/pacio-cs"
          ]
        },
        "text": {
          "status": "extensions",
          "div": "<div xmlns=\"http://www.w3.org/1999/xhtml\"><p><b>Generated Narrative</b></p><p><b>ObservationEventLocation</b>: <a href=\"Location-Org-Loc-02.html\">Generated Summary: status: active; name: Happy Nursing Facility</a></p><p></p><p><b>category</b>: <span title=\"Codes: {http://hl7.org/fhir/us/pacio-cs/CodeSystem/pacio-cat-cs functioning}\">Functioning</span>, <span title=\"Codes: {http://terminology.hl7.org/CodeSystem/observation-category survey}\">Survey</span></p><p><b>code</b>: <span title=\"Codes: {http://loinc.org 54632-5}\">Acute Onset Mental Status Change. Is there evidence of an acute change in mental status from the resident's baseline?</span></p><p><b>subject</b>: <a href=\"Patient-patientBSJ1.html\">Generated Summary: Betsy Smith-Johnson</a></p><p><b>effective</b>: Apr 9, 2020 11:00:00 PM</p><p><b>performer</b>: <a href=\"PractitionerRole-Role-SLP-HoneyJones.html\">Generated Summary: active: true; <span title=\"Codes: {http://snomed.info/sct 159026005}\">Speech and language therapist</span></a></p><p><b>value</b>: <span title=\"Codes: {http://loinc.org LA32-8}\">No</span></p><p><b>derivedFrom</b>: <a href=\"QuestionnaireResponse-QResponse-SNF-CAM-Admission-1.html\">Generated Summary: questionnaire: http://example.org/Questionnaire/MDS3.0-NC-1.17; status: completed; authored: Apr 9, 2020 11:00:00 PM</a></p></div>"
        },
        "extension": [
          {
            "url": "http://hl7.org/fhir/us/pacio-cs/StructureDefinition/event-location",
            "valueReference": {
              "reference": "Location/Org-Loc-02"
            }
          }
        ],
        "status": "final",
        "category": [
          {
            "coding": [
              {
                "system": "http://hl7.org/fhir/us/pacio-cs/CodeSystem/pacio-cat-cs",
                "code": "functioning",
                "display": "Functioning"
              }
            ]
          },
          {
            "coding": [
              {
                "system": "http://terminology.hl7.org/CodeSystem/observation-category",
                "code": "survey",
                "display": "Survey"
              }
            ]
          }
        ],
        "code": {
          "coding": [
            {
              "system": "http://loinc.org",
              "code": "54632-5",
              "display": "Acute onset mental status change [CAM.CMS]"
            }
          ],
          "text": "Acute Onset Mental Status Change. Is there evidence of an acute change in mental status from the resident's baseline?"
        },
        "subject": {
          "reference": "Patient/patientBSJ1"
        },
        "effectiveDateTime": "2020-04-09T18:00:00-05:00",
        "performer": [
          {
            "reference": "PractitionerRole/Role-SLP-HoneyJones"
          }
        ],
        "valueCodeableConcept": {
          "coding": [
            {
              "system": "http://loinc.org",
              "code": "LA32-8",
              "display": "No"
            }
          ],
          "text": "No"
        },
        "derivedFrom": [
          {
            "reference": "QuestionnaireResponse/QResponse-SNF-CAM-Admission-1"
          }
        ],
        "resourceType": "Observation"
      },
      "request": {
        "method": "PUT",
        "url": "Observation/CSC-SNF-CAM-Admission-1-Ob-Question-1"
      }
    },
    {
      "fullUrl": "Observation/CSC-SNF-PHQ9-1-Ob-Question-20",
      "resource": {
        "id": "CSC-SNF-PHQ9-1-Ob-Question-20",
        "meta": {
          "profile": [
            "http://hl7.org/fhir/us/pacio-cs/StructureDefinition/pacio-cs"
          ]
        },
        "text": {
          "status": "extensions",
          "div": "<div xmlns=\"http://www.w3.org/1999/xhtml\"><p><b>Generated Narrative</b></p><p><b>ObservationEventLocation</b>: <a href=\"Location-Org-Loc-03.html\">Generated Summary: status: active; name: Sky Harbor Home Health Services</a></p><p></p><p><b>category</b>: <span title=\"Codes: {http://hl7.org/fhir/us/pacio-cs/CodeSystem/pacio-cat-cs functioning}\">Functioning</span>, <span title=\"Codes: {http://terminology.hl7.org/CodeSystem/observation-category survey}\">Survey</span></p><p><b>code</b>: <span title=\"Codes: {http://loinc.org 54645-7}\">Poor appetite or overeating</span></p><p><b>subject</b>: <a href=\"Patient-patientBSJ1.html\">Generated Summary: Betsy Smith-Johnson</a></p><p><b>effective</b>: Jul 11, 2020 4:30:00 PM</p><p><b>performer</b>: <a href=\"PractitionerRole-Role-SLP-LunaBaskins.html\">Generated Summary: active: true; <span title=\"Codes: {http://snomed.info/sct 159026005}\">Speech and language therapist</span></a></p><p><b>value</b>: <span title=\"Codes: {http://loinc.org LA10997-7}\">Never or 1 day</span></p><p><b>derivedFrom</b>: <a href=\"QuestionnaireResponse-QResponse-SNF-PHQ9-1.html\">Generated Summary: questionnaire: http://example.org/Questionnaire/MDS3.0-NC-1.17; status: completed; authored: Jul 11, 2020 4:30:00 PM</a></p></div>"
        },
        "extension": [
          {
            "url": "http://hl7.org/fhir/us/pacio-cs/StructureDefinition/event-location",
            "valueReference": {
              "reference": "Location/Org-Loc-03"
            }
          }
        ],
        "status": "final",
        "category": [
          {
            "coding": [
              {
                "system": "http://hl7.org/fhir/us/pacio-cs/CodeSystem/pacio-cat-cs",
                "code": "functioning",
                "display": "Functioning"
              }
            ]
          },
          {
            "coding": [
              {
                "system": "http://terminology.hl7.org/CodeSystem/observation-category",
                "code": "survey"
              }
            ]
          }
        ],
        "code": {
          "coding": [
            {
              "system": "http://loinc.org",
              "code": "54645-7",
              "display": "Poor appetite or overeating in last 2 weeks.frequency [Reported PHQ-9 CMS]"
            }
          ],
          "text": "Poor appetite or overeating"
        },
        "subject": {
          "reference": "Patient/patientBSJ1"
        },
        "effectiveDateTime": "2020-07-11T11:30:00-05:00",
        "performer": [
          {
            "reference": "PractitionerRole/Role-SLP-LunaBaskins"
          }
        ],
        "valueCodeableConcept": {
          "coding": [
            {
              "system": "http://loinc.org",
              "code": "LA10997-7",
              "display": "Never or 1 day"
            }
          ],
          "text": "Never or 1 day"
        },
        "derivedFrom": [
          {
            "reference": "QuestionnaireResponse/QResponse-SNF-PHQ9-1"
          }
        ],
        "resourceType": "Observation"
      },
      "request": {
        "method": "PUT",
        "url": "Observation/CSC-SNF-PHQ9-1-Ob-Question-20"
      }
    },
    {
      "fullUrl": "Observation/CSC-SNF-CAM-Admission-1",
      "resource": {
        "id": "CSC-SNF-CAM-Admission-1",
        "meta": {
          "profile": [
            "http://hl7.org/fhir/us/pacio-cs/StructureDefinition/pacio-csc"
          ]
        },
        "text": {
          "status": "extensions",
          "div": "<div xmlns=\"http://www.w3.org/1999/xhtml\"><p><b>Generated Narrative</b></p><p><b>ObservationEventLocation</b>: <a href=\"Location-Org-Loc-02.html\">Generated Summary: status: active; name: Happy Nursing Facility</a></p><p></p><p><b>category</b>: <span title=\"Codes: {http://hl7.org/fhir/us/pacio-cs/CodeSystem/pacio-cat-cs functioning}\">Functioning</span>, <span title=\"Codes: {http://terminology.hl7.org/CodeSystem/observation-category survey}\">Survey</span></p><p><b>code</b>: <span title=\"Codes: {http://loinc.org 86585-7}\">MDS v3.0 - RAI v1.17.2 - Signs and symptoms of delirium (from CAM) [CMS Assessment]</span></p><p><b>subject</b>: <a href=\"Patient-patientBSJ1.html\">Generated Summary: Betsy Smith-Johnson</a></p><p><b>effective</b>: Apr 9, 2020 11:00:00 PM</p><p><b>performer</b>: <a href=\"PractitionerRole-Role-SLP-HoneyJones.html\">Generated Summary: active: true; <span title=\"Codes: {http://snomed.info/sct 159026005}\">Speech and language therapist</span></a></p><p><b>hasMember</b>: </p><ul><li><a href=\"Observation-CSC-SNF-CAM-Admission-1-Ob-Question-1.html\">Generated Summary: <span title=\"Codes: {http://hl7.org/fhir/us/pacio-cs/CodeSystem/pacio-cat-cs functioning}\">Functioning</span>, <span title=\"Codes: {http://terminology.hl7.org/CodeSystem/observation-category survey}\">Survey</span>; <span title=\"Codes: {http://loinc.org 54632-5}\">Acute Onset Mental Status Change. Is there evidence of an acute change in mental status from the resident's baseline?</span>; effective: Apr 9, 2020 11:00:00 PM; <span title=\"Codes: {http://loinc.org LA32-8}\">No</span></a></li><li><a href=\"Observation-CSC-SNF-CAM-Admission-1-Ob-Question-3.html\">Generated Summary: <span title=\"Codes: {http://hl7.org/fhir/us/pacio-cs/CodeSystem/pacio-cat-cs functioning}\">Functioning</span>, <span title=\"Codes: {http://terminology.hl7.org/CodeSystem/observation-category survey}\">Survey</span>; <span title=\"Codes: {http://loinc.org 54628-3}\">Inattention - Did the resident have difficulty focusing attention, for example, being easily distractible or having difficulty keeping track of what was being said?</span>; effective: Apr 9, 2020 11:00:00 PM; <span title=\"Codes: {http://loinc.org LA61-7}\">Behavior not present</span></a></li><li><a href=\"Observation-CSC-SNF-CAM-Admission-1-Ob-Question-5.html\">Generated Summary: <span title=\"Codes: {http://hl7.org/fhir/us/pacio-cs/CodeSystem/pacio-cat-cs functioning}\">Functioning</span>, <span title=\"Codes: {http://terminology.hl7.org/CodeSystem/observation-category survey}\">Survey</span>; <span title=\"Codes: {http://loinc.org 54629-1}\">Disorganized Thinking - Was the resident's thinking disorganized or incoherent (rambling or irrelevant conversation, unclear or illogical flow of ideas, or unpredictable switching from subject to subject)?</span>; effective: Apr 9, 2020 11:00:00 PM; <span title=\"Codes: {http://loinc.org LA61-7}\">Behavior not present</span></a></li></ul><p><b>derivedFrom</b>: <a href=\"QuestionnaireResponse-QResponse-SNF-CAM-Admission-1.html\">Generated Summary: questionnaire: http://example.org/Questionnaire/MDS3.0-NC-1.17; status: completed; authored: Apr 9, 2020 11:00:00 PM</a></p></div>"
        },
        "extension": [
          {
            "url": "http://hl7.org/fhir/us/pacio-cs/StructureDefinition/event-location",
            "valueReference": {
              "reference": "Location/Org-Loc-02"
            }
          }
        ],
        "status": "final",
        "category": [
          {
            "coding": [
              {
                "system": "http://hl7.org/fhir/us/pacio-cs/CodeSystem/pacio-cat-cs",
                "code": "functioning",
                "display": "Functioning"
              }
            ]
          },
          {
            "coding": [
              {
                "system": "http://terminology.hl7.org/CodeSystem/observation-category",
                "code": "survey",
                "display": "Survey"
              }
            ]
          }
        ],
        "code": {
          "coding": [
            {
              "system": "http://loinc.org",
              "code": "86585-7",
              "display": "MDS v3.0 - RAI v1.17.2 - Signs and symptoms of delirium (from CAM) [CMS Assessment]"
            }
          ]
        },
        "subject": {
          "reference": "Patient/patientBSJ1"
        },
        "effectiveDateTime": "2020-04-09T18:00:00-05:00",
        "performer": [
          {
            "reference": "PractitionerRole/Role-SLP-HoneyJones"
          }
        ],
        "hasMember": [
          {
            "reference": "Observation/CSC-SNF-CAM-Admission-1-Ob-Question-1"
          },
          {
            "reference": "Observation/CSC-SNF-CAM-Admission-1-Ob-Question-3"
          },
          {
            "reference": "Observation/CSC-SNF-CAM-Admission-1-Ob-Question-5"
          }
        ],
        "derivedFrom": [
          {
            "reference": "QuestionnaireResponse/QResponse-SNF-CAM-Admission-1"
          }
        ],
        "resourceType": "Observation"
      },
      "request": {
        "method": "PUT",
        "url": "Observation/CSC-SNF-CAM-Admission-1"
      }
    },
    {
      "fullUrl": "Observation/CSC-SNF-PHQ9-1-Ob-Question-21",
      "resource": {
        "id": "CSC-SNF-PHQ9-1-Ob-Question-21",
        "meta": {
          "profile": [
            "http://hl7.org/fhir/us/pacio-cs/StructureDefinition/pacio-cs"
          ]
        },
        "text": {
          "status": "extensions",
          "div": "<div xmlns=\"http://www.w3.org/1999/xhtml\"><p><b>Generated Narrative</b></p><p><b>ObservationEventLocation</b>: <a href=\"Location-Org-Loc-03.html\">Generated Summary: status: active; name: Sky Harbor Home Health Services</a></p><p></p><p><b>category</b>: <span title=\"Codes: {http://hl7.org/fhir/us/pacio-cs/CodeSystem/pacio-cat-cs functioning}\">Functioning</span>, <span title=\"Codes: {http://terminology.hl7.org/CodeSystem/observation-category survey}\">Survey</span></p><p><b>code</b>: <span title=\"Codes: {http://loinc.org 54646-5}\">Feeling bad about yourself - or that you are a failure or have let yourself or your family down</span></p><p><b>subject</b>: <a href=\"Patient-patientBSJ1.html\">Generated Summary: Betsy Smith-Johnson</a></p><p><b>effective</b>: Jul 11, 2020 4:30:00 PM</p><p><b>performer</b>: <a href=\"PractitionerRole-Role-SLP-LunaBaskins.html\">Generated Summary: active: true; <span title=\"Codes: {http://snomed.info/sct 159026005}\">Speech and language therapist</span></a></p><p><b>value</b>: <span title=\"Codes: {http://loinc.org LA32-8}\">No</span></p><p><b>derivedFrom</b>: <a href=\"QuestionnaireResponse-QResponse-SNF-PHQ9-1.html\">Generated Summary: questionnaire: http://example.org/Questionnaire/MDS3.0-NC-1.17; status: completed; authored: Jul 11, 2020 4:30:00 PM</a></p></div>"
        },
        "extension": [
          {
            "url": "http://hl7.org/fhir/us/pacio-cs/StructureDefinition/event-location",
            "valueReference": {
              "reference": "Location/Org-Loc-03"
            }
          }
        ],
        "status": "final",
        "category": [
          {
            "coding": [
              {
                "system": "http://hl7.org/fhir/us/pacio-cs/CodeSystem/pacio-cat-cs",
                "code": "functioning",
                "display": "Functioning"
              }
            ]
          },
          {
            "coding": [
              {
                "system": "http://terminology.hl7.org/CodeSystem/observation-category",
                "code": "survey"
              }
            ]
          }
        ],
        "code": {
          "coding": [
            {
              "system": "http://loinc.org",
              "code": "54646-5",
              "display": "Feeling bad about yourself - or that you are a failure or have let yourself or your family down in last 2 weeks.presence [Reported PHQ-9 CMS]"
            }
          ],
          "text": "Feeling bad about yourself - or that you are a failure or have let yourself or your family down"
        },
        "subject": {
          "reference": "Patient/patientBSJ1"
        },
        "effectiveDateTime": "2020-07-11T11:30:00-05:00",
        "performer": [
          {
            "reference": "PractitionerRole/Role-SLP-LunaBaskins"
          }
        ],
        "valueCodeableConcept": {
          "coding": [
            {
              "system": "http://loinc.org",
              "code": "LA32-8",
              "display": "No"
            }
          ],
          "text": "No"
        },
        "derivedFrom": [
          {
            "reference": "QuestionnaireResponse/QResponse-SNF-PHQ9-1"
          }
        ],
        "resourceType": "Observation"
      },
      "request": {
        "method": "PUT",
        "url": "Observation/CSC-SNF-PHQ9-1-Ob-Question-21"
      }
    },
    {
      "fullUrl": "Device/CMS-Device-HearingAid",
      "resource": {
        "id": "CMS-Device-HearingAid",
        "text": {
          "status": "generated",
          "div": "<div xmlns=\"http://www.w3.org/1999/xhtml\"><p><b>Generated Narrative</b></p><h3>DeviceNames</h3><table class=\"grid\"><tr><td>-</td><td><b>Name</b></td><td><b>Type</b></td></tr><tr><td>*</td><td>Hearing aid</td><td>user-friendly-name</td></tr></table><p><b>type</b>: <span title=\"Codes: {http://snomed.info/sct 6012004}\">Hearing aid</span></p></div>"
        },
        "deviceName": [
          {
            "name": "Hearing aid",
            "type": "user-friendly-name"
          }
        ],
        "type": {
          "coding": [
            {
              "system": "http://snomed.info/sct",
              "code": "6012004"
            }
          ]
        },
        "resourceType": "Device"
      },
      "request": {
        "method": "PUT",
        "url": "Device/CMS-Device-HearingAid"
      }
    },
    {
      "fullUrl": "PractitionerRole/Role-SLP-HoneyJones",
      "resource": {
        "id": "Role-SLP-HoneyJones",
        "text": {
          "status": "generated",
          "div": "<div xmlns=\"http://www.w3.org/1999/xhtml\"><p><b>Generated Narrative</b></p><p><b>active</b>: true</p><p><b>practitioner</b>: <a href=\"Practitioner-Practitioner-HoneyJones.html\">Generated Summary: active: true; Honey Jones; gender: female</a></p><p><b>organization</b>: <a href=\"Organization-Org-02.html\">Generated Summary: name: Happy Nursing Facility</a></p><p><b>code</b>: <span title=\"Codes: {http://snomed.info/sct 159026005}\">Speech and language therapist</span></p><p><b>location</b>: <a href=\"Location-Org-Loc-02.html\">Generated Summary: status: active; name: Happy Nursing Facility</a></p></div>"
        },
        "active": true,
        "practitioner": {
          "reference": "Practitioner/Practitioner-HoneyJones"
        },
        "organization": {
          "reference": "Organization/Org-02"
        },
        "code": [
          {
            "coding": [
              {
                "system": "http://snomed.info/sct",
                "code": "159026005",
                "display": "Speech and language therapist"
              }
            ]
          }
        ],
        "location": [
          {
            "reference": "Location/Org-Loc-02"
          }
        ],
        "resourceType": "PractitionerRole"
      },
      "request": {
        "method": "PUT",
        "url": "PractitionerRole/Role-SLP-HoneyJones"
      }
    },
    {
      "fullUrl": "Observation/CSC-SNF-BIMS-1-Ob-Question-7",
      "resource": {
        "id": "CSC-SNF-BIMS-1-Ob-Question-7",
        "meta": {
          "profile": [
            "http://hl7.org/fhir/us/pacio-cs/StructureDefinition/pacio-cs"
          ]
        },
        "text": {
          "status": "extensions",
          "div": "<div xmlns=\"http://www.w3.org/1999/xhtml\"><p><b>Generated Narrative</b></p><p><b>ObservationEventLocation</b>: <a href=\"Location-Org-Loc-02.html\">Generated Summary: status: active; name: Happy Nursing Facility</a></p><p></p><p><b>category</b>: <span title=\"Codes: {http://hl7.org/fhir/us/pacio-cs/CodeSystem/pacio-cat-cs functioning}\">Functioning</span>, <span title=\"Codes: {http://terminology.hl7.org/CodeSystem/observation-category survey}\">Survey</span></p><p><b>code</b>: <span title=\"Codes: {http://loinc.org 52735-8}\">Able to recall \"sock\"</span></p><p><b>subject</b>: <a href=\"Patient-patientBSJ1.html\">Generated Summary: Betsy Smith-Johnson</a></p><p><b>effective</b>: Jul 11, 2020 4:30:00 PM</p><p><b>performer</b>: <a href=\"PractitionerRole-Role-SLP-HoneyJones.html\">Generated Summary: active: true; <span title=\"Codes: {http://snomed.info/sct 159026005}\">Speech and language therapist</span></a></p><p><b>value</b>: <span title=\"Codes: {http://loinc.org LA10126-3}\">Yes, after cueing (\"something to wear\")</span></p><p><b>derivedFrom</b>: <a href=\"QuestionnaireResponse-QResponse-SNF-BIMS-1.html\">Generated Summary: questionnaire: http://example.org/Questionnaire/MDS3.0-NC-1.17; status: completed; authored: Jul 11, 2020 4:30:00 PM</a></p></div>"
        },
        "extension": [
          {
            "url": "http://hl7.org/fhir/us/pacio-cs/StructureDefinition/event-location",
            "valueReference": {
              "reference": "Location/Org-Loc-02"
            }
          }
        ],
        "status": "final",
        "category": [
          {
            "coding": [
              {
                "system": "http://hl7.org/fhir/us/pacio-cs/CodeSystem/pacio-cat-cs",
                "code": "functioning",
                "display": "Functioning"
              }
            ]
          },
          {
            "coding": [
              {
                "system": "http://terminology.hl7.org/CodeSystem/observation-category",
                "code": "survey"
              }
            ]
          }
        ],
        "code": {
          "coding": [
            {
              "system": "http://loinc.org",
              "code": "52735-8",
              "display": "Recall - sock [BIMS]"
            }
          ],
          "text": "Able to recall \"sock\""
        },
        "subject": {
          "reference": "Patient/patientBSJ1"
        },
        "effectiveDateTime": "2020-07-11T11:30:00-05:00",
        "performer": [
          {
            "reference": "PractitionerRole/Role-SLP-HoneyJones"
          }
        ],
        "valueCodeableConcept": {
          "coding": [
            {
              "system": "http://loinc.org",
              "code": "LA10126-3",
              "display": "Yes, after cueing (\"something to wear\")"
            }
          ],
          "text": "Yes, after cueing (\"something to wear\")"
        },
        "derivedFrom": [
          {
            "reference": "QuestionnaireResponse/QResponse-SNF-BIMS-1"
          }
        ],
        "resourceType": "Observation"
      },
      "request": {
        "method": "PUT",
        "url": "Observation/CSC-SNF-BIMS-1-Ob-Question-7"
      }
    },
    {
      "fullUrl": "Organization/Org-03",
      "resource": {
        "id": "Org-03",
        "text": {
          "status": "generated",
          "div": "<div xmlns=\"http://www.w3.org/1999/xhtml\"><p><b>Generated Narrative</b></p><p><b>name</b>: Sky Harbor Home Health Services</p></div>"
        },
        "name": "Sky Harbor Home Health Services",
        "resourceType": "Organization"
      },
      "request": {
        "method": "PUT",
        "url": "Organization/Org-03"
      }
    },
    {
      "fullUrl": "Organization/provider-org-16",
      "resource": {
        "id": "provider-org-16",
        "text": {
          "status": "generated",
          "div": "<div xmlns=\"http://www.w3.org/1999/xhtml\"><p><b>Generated Narrative</b></p><p><b>name</b>: Neuro Care INC.</p></div>"
        },
        "name": "Neuro Care INC.",
        "resourceType": "Organization"
      },
      "request": {
        "method": "PUT",
        "url": "Organization/provider-org-16"
      }
    },
    {
      "fullUrl": "Practitioner/Practitioner-JennyGlass",
      "resource": {
        "id": "Practitioner-JennyGlass",
        "text": {
          "status": "generated",
          "div": "<div xmlns=\"http://www.w3.org/1999/xhtml\"><p><b>Generated Narrative</b></p><p><b>active</b>: true</p><p><b>name</b>: Jenny Glass</p><p><b>gender</b>: female</p></div>"
        },
        "active": true,
        "name": [
          {
            "text": "Jenny Glass",
            "family": "Glass",
            "given": [
              "Jenny"
            ]
          }
        ],
        "gender": "female",
        "resourceType": "Practitioner"
      },
      "request": {
        "method": "PUT",
        "url": "Practitioner/Practitioner-JennyGlass"
      }
    },
    {
      "fullUrl": "Observation/CSC-SNF-PHQ9-1-Ob-Question-17",
      "resource": {
        "id": "CSC-SNF-PHQ9-1-Ob-Question-17",
        "meta": {
          "profile": [
            "http://hl7.org/fhir/us/pacio-cs/StructureDefinition/pacio-cs"
          ]
        },
        "text": {
          "status": "extensions",
          "div": "<div xmlns=\"http://www.w3.org/1999/xhtml\"><p><b>Generated Narrative</b></p><p><b>ObservationEventLocation</b>: <a href=\"Location-Org-Loc-03.html\">Generated Summary: status: active; name: Sky Harbor Home Health Services</a></p><p></p><p><b>category</b>: <span title=\"Codes: {http://hl7.org/fhir/us/pacio-cs/CodeSystem/pacio-cat-cs functioning}\">Functioning</span>, <span title=\"Codes: {http://terminology.hl7.org/CodeSystem/observation-category survey}\">Survey</span></p><p><b>code</b>: <span title=\"Codes: {http://loinc.org 54642-4}\">Feeling tired or having little energy</span></p><p><b>subject</b>: <a href=\"Patient-patientBSJ1.html\">Generated Summary: Betsy Smith-Johnson</a></p><p><b>effective</b>: Jul 11, 2020 4:30:00 PM</p><p><b>performer</b>: <a href=\"PractitionerRole-Role-SLP-LunaBaskins.html\">Generated Summary: active: true; <span title=\"Codes: {http://snomed.info/sct 159026005}\">Speech and language therapist</span></a></p><p><b>value</b>: <span title=\"Codes: {http://loinc.org LA32-8}\">No</span></p><p><b>derivedFrom</b>: <a href=\"QuestionnaireResponse-QResponse-SNF-PHQ9-1.html\">Generated Summary: questionnaire: http://example.org/Questionnaire/MDS3.0-NC-1.17; status: completed; authored: Jul 11, 2020 4:30:00 PM</a></p></div>"
        },
        "extension": [
          {
            "url": "http://hl7.org/fhir/us/pacio-cs/StructureDefinition/event-location",
            "valueReference": {
              "reference": "Location/Org-Loc-03"
            }
          }
        ],
        "status": "final",
        "category": [
          {
            "coding": [
              {
                "system": "http://hl7.org/fhir/us/pacio-cs/CodeSystem/pacio-cat-cs",
                "code": "functioning",
                "display": "Functioning"
              }
            ]
          },
          {
            "coding": [
              {
                "system": "http://terminology.hl7.org/CodeSystem/observation-category",
                "code": "survey"
              }
            ]
          }
        ],
        "code": {
          "coding": [
            {
              "system": "http://loinc.org",
              "code": "54642-4",
              "display": "Feeling tired or having little energy in last 2 weeks.presence [Reported PHQ-9 CMS]"
            }
          ],
          "text": "Feeling tired or having little energy"
        },
        "subject": {
          "reference": "Patient/patientBSJ1"
        },
        "effectiveDateTime": "2020-07-11T11:30:00-05:00",
        "performer": [
          {
            "reference": "PractitionerRole/Role-SLP-LunaBaskins"
          }
        ],
        "valueCodeableConcept": {
          "coding": [
            {
              "system": "http://loinc.org",
              "code": "LA32-8",
              "display": "No"
            }
          ],
          "text": "No"
        },
        "derivedFrom": [
          {
            "reference": "QuestionnaireResponse/QResponse-SNF-PHQ9-1"
          }
        ],
        "resourceType": "Observation"
      },
      "request": {
        "method": "PUT",
        "url": "Observation/CSC-SNF-PHQ9-1-Ob-Question-17"
      }
    },
    {
      "fullUrl": "Location/provider-org-loc-01",
      "resource": {
        "id": "provider-org-loc-01",
        "text": {
          "status": "generated",
          "div": "<div xmlns=\"http://www.w3.org/1999/xhtml\"><p><b>Generated Narrative</b></p><p><b>status</b>: active</p><p><b>name</b>: Primary Care INC.</p><p><b>address</b>: 177 Deerfield St. San Antonio, TX 78207</p></div>"
        },
        "status": "active",
        "name": "Primary Care INC.",
        "address": {
          "text": "177 Deerfield St. San Antonio, TX 78207"
        },
        "resourceType": "Location"
      },
      "request": {
        "method": "PUT",
        "url": "Location/provider-org-loc-01"
      }
    },
    {
      "fullUrl": "Observation/BSJ-Narrative-History-Cognitive-Status-1",
      "resource": {
        "id": "BSJ-Narrative-History-Cognitive-Status-1",
        "meta": {
          "profile": [
            "http://hl7.org/fhir/us/pacio-cs/StructureDefinition/pacio-nhcs"
          ]
        },
        "text": {
          "status": "extensions",
          "div": "<div xmlns=\"http://www.w3.org/1999/xhtml\"><p><b>Generated Narrative</b></p><p><b>ObservationEventLocation</b>: <a href=\"Location-provider-org-loc-01.html\">Generated Summary: status: active; name: Primary Care INC.</a></p><p><b>AssistanceRequired</b>: <span title=\"Codes: {http://loinc.org LA11539-6}\">Independent - Patient completed the activities by him/herself, with or without an assistive device, with no assistance from a helper.</span></p><p></p><p><b>category</b>: <span title=\"Codes: {http://hl7.org/fhir/us/pacio-cs/CodeSystem/pacio-cat-cs functioning}\">Functioning</span></p><p><b>code</b>: <span title=\"Codes: {http://loinc.org 11332-4}\">History of Cognitive Function Narrative</span></p><p><b>subject</b>: <a href=\"Patient-patientBSJ1.html\">Generated Summary: Betsy Smith-Johnson</a></p><p><b>effective</b>: 2019-07-01 --&gt; 2020-11-30</p><p><b>performer</b>: <a href=\"PractitionerRole-provider-role-pcp.html\">Generated Summary: active: true; <span title=\"Codes: {http://nucc.org/provider-taxonomy 261QP2300X}\">Primary Care Clinic/Center</span></a></p><p><b>value</b>: Alert and oriented x 3. She is independent in household finances, social and community activities, coeherent and appropriate communication. Appropriate attire for location and weather.</p></div>"
        },
        "extension": [
          {
            "url": "http://hl7.org/fhir/us/pacio-cs/StructureDefinition/event-location",
            "valueReference": {
              "reference": "Location/provider-org-loc-01"
            }
          },
          {
            "url": "http://hl7.org/fhir/us/pacio-cs/StructureDefinition/assistance-required",
            "valueCodeableConcept": {
              "coding": [
                {
                  "system": "http://loinc.org",
                  "code": "LA11539-6",
                  "display": "Independent - Patient completed the activities by him/herself, with or without an assistive device, with no assistance from a helper."
                }
              ]
            }
          }
        ],
        "status": "final",
        "category": [
          {
            "coding": [
              {
                "system": "http://hl7.org/fhir/us/pacio-cs/CodeSystem/pacio-cat-cs",
                "code": "functioning",
                "display": "Functioning"
              }
            ]
          }
        ],
        "code": {
          "coding": [
            {
              "system": "http://loinc.org",
              "code": "11332-4",
              "display": "History of Cognitive Function Narrative"
            }
          ]
        },
        "subject": {
          "reference": "Patient/patientBSJ1"
        },
        "effectivePeriod": {
          "start": "2019-07-01",
          "end": "2020-11-30"
        },
        "performer": [
          {
            "reference": "PractitionerRole/provider-role-pcp"
          }
        ],
        "valueString": "Alert and oriented x 3. She is independent in household finances, social and community activities, coeherent and appropriate communication. Appropriate attire for location and weather.",
        "resourceType": "Observation"
      },
      "request": {
        "method": "PUT",
        "url": "Observation/BSJ-Narrative-History-Cognitive-Status-1"
      }
    },
    {
      "fullUrl": "Observation/CSC-SNF-PHQ9-1-Ob-Question-26",
      "resource": {
        "id": "CSC-SNF-PHQ9-1-Ob-Question-26",
        "meta": {
          "profile": [
            "http://hl7.org/fhir/us/pacio-cs/StructureDefinition/pacio-cs"
          ]
        },
        "text": {
          "status": "extensions",
          "div": "<div xmlns=\"http://www.w3.org/1999/xhtml\"><p><b>Generated Narrative</b></p><p><b>ObservationEventLocation</b>: <a href=\"Location-Org-Loc-03.html\">Generated Summary: status: active; name: Sky Harbor Home Health Services</a></p><p></p><p><b>category</b>: <span title=\"Codes: {http://hl7.org/fhir/us/pacio-cs/CodeSystem/pacio-cat-cs functioning}\">Functioning</span>, <span title=\"Codes: {http://terminology.hl7.org/CodeSystem/observation-category survey}\">Survey</span></p><p><b>code</b>: <span title=\"Codes: {http://loinc.org 54651-5}\">Moving or speaking so slowly that other people could have noticed. Or the opposite - being so fidgety or restless that you have been moving around a lot more than usual</span></p><p><b>subject</b>: <a href=\"Patient-patientBSJ1.html\">Generated Summary: Betsy Smith-Johnson</a></p><p><b>effective</b>: Jul 11, 2020 4:30:00 PM</p><p><b>performer</b>: <a href=\"PractitionerRole-Role-SLP-LunaBaskins.html\">Generated Summary: active: true; <span title=\"Codes: {http://snomed.info/sct 159026005}\">Speech and language therapist</span></a></p><p><b>value</b>: <span title=\"Codes: {http://loinc.org LA10997-7}\">Never or 1 day</span></p><p><b>derivedFrom</b>: <a href=\"QuestionnaireResponse-QResponse-SNF-PHQ9-1.html\">Generated Summary: questionnaire: http://example.org/Questionnaire/MDS3.0-NC-1.17; status: completed; authored: Jul 11, 2020 4:30:00 PM</a></p></div>"
        },
        "extension": [
          {
            "url": "http://hl7.org/fhir/us/pacio-cs/StructureDefinition/event-location",
            "valueReference": {
              "reference": "Location/Org-Loc-03"
            }
          }
        ],
        "status": "final",
        "category": [
          {
            "coding": [
              {
                "system": "http://hl7.org/fhir/us/pacio-cs/CodeSystem/pacio-cat-cs",
                "code": "functioning",
                "display": "Functioning"
              }
            ]
          },
          {
            "coding": [
              {
                "system": "http://terminology.hl7.org/CodeSystem/observation-category",
                "code": "survey"
              }
            ]
          }
        ],
        "code": {
          "coding": [
            {
              "system": "http://loinc.org",
              "code": "54651-5",
              "display": "Moving or speaking so slowly that other people could have noticed. Or the opposite - being so fidgety or restless that you have been moving around a lot more than usual in last 2 weeks.frequency [Reported PHQ-9 CMS]"
            }
          ],
          "text": "Moving or speaking so slowly that other people could have noticed. Or the opposite - being so fidgety or restless that you have been moving around a lot more than usual"
        },
        "subject": {
          "reference": "Patient/patientBSJ1"
        },
        "effectiveDateTime": "2020-07-11T11:30:00-05:00",
        "performer": [
          {
            "reference": "PractitionerRole/Role-SLP-LunaBaskins"
          }
        ],
        "valueCodeableConcept": {
          "coding": [
            {
              "system": "http://loinc.org",
              "code": "LA10997-7",
              "display": "Never or 1 day"
            }
          ],
          "text": "Never or 1 day"
        },
        "derivedFrom": [
          {
            "reference": "QuestionnaireResponse/QResponse-SNF-PHQ9-1"
          }
        ],
        "resourceType": "Observation"
      },
      "request": {
        "method": "PUT",
        "url": "Observation/CSC-SNF-PHQ9-1-Ob-Question-26"
      }
    },
    {
      "fullUrl": "Location/Org-Loc-02",
      "resource": {
        "id": "Org-Loc-02",
        "text": {
          "status": "generated",
          "div": "<div xmlns=\"http://www.w3.org/1999/xhtml\"><p><b>Generated Narrative</b></p><p><b>status</b>: active</p><p><b>name</b>: Happy Nursing Facility</p><p><b>address</b>: 8100 Pinebrook Dr, San Antonio, TX, 78230</p></div>"
        },
        "status": "active",
        "name": "Happy Nursing Facility",
        "address": {
          "text": "8100 Pinebrook Dr, San Antonio, TX, 78230"
        },
        "resourceType": "Location"
      },
      "request": {
        "method": "PUT",
        "url": "Location/Org-Loc-02"
      }
    },
    {
      "fullUrl": "Patient/patientBSJ1",
      "resource": {
        "id": "patientBSJ1",
        "text": {
          "status": "generated",
          "div": "<div xmlns=\"http://www.w3.org/1999/xhtml\"><p><b>Generated Narrative</b></p><p><b>name</b>: Betsy Smith-Johnson</p></div>"
        },
        "name": [
          {
            "text": "Betsy Smith-Johnson",
            "family": "Smith-Johnson",
            "given": [
              "Betsy"
            ]
          }
        ],
        "resourceType": "Patient"
      },
      "request": {
        "method": "PUT",
        "url": "Patient/patientBSJ1"
      }
    },
    {
      "fullUrl": "Practitioner/Practitioner-JohnSmith",
      "resource": {
        "id": "Practitioner-JohnSmith",
        "text": {
          "status": "generated",
          "div": "<div xmlns=\"http://www.w3.org/1999/xhtml\"><p><b>Generated Narrative</b></p><p><b>identifier</b>: id: 4278275001</p><p><b>active</b>: true</p><p><b>name</b>: John Smith</p><p><b>gender</b>: male</p></div>"
        },
        "identifier": [
          {
            "system": "http://hl7.org/fhir/sid/us-npi",
            "value": "4278275001"
          }
        ],
        "active": true,
        "name": [
          {
            "text": "John Smith",
            "family": "Smith",
            "given": [
              "John"
            ]
          }
        ],
        "gender": "male",
        "resourceType": "Practitioner"
      },
      "request": {
        "method": "PUT",
        "url": "Practitioner/Practitioner-JohnSmith"
      }
    },
    {
      "fullUrl": "DeviceUseStatement/CSC-SNF-BIMS-1-UseOfDevice-2",
      "resource": {
        "id": "CSC-SNF-BIMS-1-UseOfDevice-2",
        "meta": {
          "profile": [
            "http://hl7.org/fhir/us/pacio-cs/StructureDefinition/pacio-cs-dev"
          ]
        },
        "text": {
          "status": "generated",
          "div": "<div xmlns=\"http://www.w3.org/1999/xhtml\"><p><b>Generated Narrative</b></p><p><b>status</b>: active</p><p><b>subject</b>: <a href=\"Patient-patientBSJ1.html\">Generated Summary: Betsy Smith-Johnson</a></p><p><b>derivedFrom</b>: <a href=\"Observation-CSC-SNF-BIMS-1.html\">Generated Summary: <span title=\"Codes: {http://hl7.org/fhir/us/pacio-cs/CodeSystem/pacio-cat-cs functioning}\">Functioning</span>, <span title=\"Codes: {http://terminology.hl7.org/CodeSystem/observation-category survey}\">Survey</span>; <span title=\"Codes: {http://loinc.org 52491-8}\">Brief interview for mental status [BIMS]</span>; effective: Jul 11, 2020 4:30:00 PM</a></p><p><b>recordedOn</b>: Jul 11, 2020 4:30:00 PM</p><p><b>source</b>: <a href=\"Practitioner-Practitioner-HoneyJones.html\">Generated Summary: active: true; Honey Jones; gender: female</a></p><p><b>device</b>: <a href=\"Device-CMS-Device-HearingAid.html\">Generated Summary: <span title=\"Codes: {http://snomed.info/sct 6012004}\">Hearing aid</span></a></p></div>"
        },
        "status": "active",
        "subject": {
          "reference": "Patient/patientBSJ1"
        },
        "derivedFrom": [
          {
            "reference": "Observation/CSC-SNF-BIMS-1"
          }
        ],
        "recordedOn": "2020-07-11T11:30:00-05:00",
        "source": {
          "reference": "Practitioner/Practitioner-HoneyJones"
        },
        "device": {
          "reference": "Device/CMS-Device-HearingAid"
        },
        "resourceType": "DeviceUseStatement"
      },
      "request": {
        "method": "PUT",
        "url": "DeviceUseStatement/CSC-SNF-BIMS-1-UseOfDevice-2"
      }
    },
    {
      "fullUrl": "QuestionnaireResponse/QResponse-SNF-PHQ9-1",
      "resource": {
        "id": "QResponse-SNF-PHQ9-1",
        "meta": {
          "profile": [
            "http://hl7.org/fhir/uv/sdc/StructureDefinition/sdc-questionnaireresponse"
          ]
        },
        "text": {
          "status": "generated",
          "div": "<div xmlns=\"http://www.w3.org/1999/xhtml\"><p><b>Generated Narrative</b></p><p><b>questionnaire</b>: <a href=\"http://example.org/Questionnaire/MDS3.0-NC-1.17\">http://example.org/Questionnaire/MDS3.0-NC-1.17</a></p><p><b>status</b>: completed</p><p><b>subject</b>: <a href=\"Patient-patientBSJ1.html\">Generated Summary: Betsy Smith-Johnson</a></p><p><b>authored</b>: Jul 11, 2020 4:30:00 PM</p><p><b>author</b>: <a href=\"PractitionerRole-Role-SLP-LunaBaskins.html\">Generated Summary: active: true; <span title=\"Codes: {http://snomed.info/sct 159026005}\">Speech and language therapist</span></a></p><blockquote><p><b>item</b></p><p><b>linkId</b>: Section-4</p><p><b>text</b>: MDS v3.0 - RAI v1.18.1 - Mood - OSA [CMS Assessment]</p><blockquote><p><b>item</b></p><p><b>linkId</b>: Section-4/D0200</p><p><b>text</b>: Resident mood interview (PHQ-9) [Reported PHQ-9 CMS]</p></blockquote><blockquote><p><b>item</b></p><p><b>linkId</b>: Section-4/D0300</p><p><b>text</b>: PHQ-9 Total Score</p></blockquote></blockquote></div>"
        },
        "questionnaire": "http://example.org/Questionnaire/MDS3.0-NC-1.17",
        "status": "completed",
        "subject": {
          "reference": "Patient/patientBSJ1"
        },
        "authored": "2020-07-11T11:30:00-05:00",
        "author": {
          "reference": "PractitionerRole/Role-SLP-LunaBaskins"
        },
        "item": [
          {
            "linkId": "Section-4",
            "text": "MDS v3.0 - RAI v1.18.1 - Mood - OSA [CMS Assessment]",
            "item": [
              {
                "linkId": "Section-4/D0200",
                "text": "Resident mood interview (PHQ-9) [Reported PHQ-9 CMS]",
                "item": [
                  {
                    "linkId": "Section-4/D0200_1",
                    "text": "Resident mood interview (PHQ-9) - symptom presence in the last 2 weeks [CMS Assessment]",
                    "item": [
                      {
                        "linkId": "Section-4/D0200A1",
                        "text": "Little interest or pleasure in doing things",
                        "answer": [
                          {
                            "valueCoding": {
                              "system": "http://loinc.org",
                              "code": "LA33-6",
                              "display": "Yes"
                            }
                          }
                        ]
                      },
                      {
                        "linkId": "Section-4/D0200B1",
                        "text": "Feeling down",
                        "answer": [
                          {
                            "valueCoding": {
                              "system": "http://loinc.org",
                              "code": "LA33-6",
                              "display": "Yes"
                            }
                          }
                        ]
                      },
                      {
                        "linkId": "Section-4/D0200C1",
                        "text": "Trouble falling or staying asleep",
                        "answer": [
                          {
                            "valueCoding": {
                              "system": "http://loinc.org",
                              "code": "LA33-6",
                              "display": "Yes"
                            }
                          }
                        ]
                      },
                      {
                        "linkId": "Section-4/D0200D1",
                        "text": "Feeling tired or having little energy",
                        "answer": [
                          {
                            "valueCoding": {
                              "system": "http://loinc.org",
                              "code": "LA32-8",
                              "display": "No"
                            }
                          }
                        ]
                      },
                      {
                        "linkId": "Section-4/D0200E1",
                        "text": "Poor appetite or overeating",
                        "answer": [
                          {
                            "valueCoding": {
                              "system": "http://loinc.org",
                              "code": "LA32-8",
                              "display": "No"
                            }
                          }
                        ]
                      },
                      {
                        "linkId": "Section-4/D0200F1",
                        "text": "Feeling bad about yourself - or that you are a failure or have let yourself or your family down",
                        "answer": [
                          {
                            "valueCoding": {
                              "system": "http://loinc.org",
                              "code": "LA32-8",
                              "display": "No"
                            }
                          }
                        ]
                      },
                      {
                        "linkId": "Section-4/D0200G1",
                        "text": "Trouble concentrating on things",
                        "answer": [
                          {
                            "valueCoding": {
                              "system": "http://loinc.org",
                              "code": "LA32-8",
                              "display": "No"
                            }
                          }
                        ]
                      },
                      {
                        "linkId": "Section-4/D0200H1",
                        "text": "Moving or speaking so slowly that other people could have noticed. Or the opposite - being so fidgety or restless that you have been moving around a lot more than usual",
                        "answer": [
                          {
                            "valueCoding": {
                              "system": "http://loinc.org",
                              "code": "LA32-8",
                              "display": "No"
                            }
                          }
                        ]
                      },
                      {
                        "linkId": "Section-4/D0200I1",
                        "text": "Thoughts that you would be better off dead",
                        "answer": [
                          {
                            "valueCoding": {
                              "system": "http://loinc.org",
                              "code": "LA10996-9",
                              "display": "No response"
                            }
                          }
                        ]
                      }
                    ]
                  },
                  {
                    "linkId": "Section-4/D0200_2",
                    "text": "Resident mood interview (PHQ-9) - symptom frequency in the last 2 weeks [CMS Assessment]",
                    "item": [
                      {
                        "linkId": "Section-4/D0200A2",
                        "text": "Little interest or pleasure in doing things",
                        "answer": [
                          {
                            "valueCoding": {
                              "system": "http://loinc.org",
                              "code": "LA10998-5",
                              "display": "2-6 days (several days)"
                            }
                          }
                        ]
                      },
                      {
                        "linkId": "Section-4/D0200B2",
                        "text": "Feeling down",
                        "answer": [
                          {
                            "valueCoding": {
                              "system": "http://loinc.org",
                              "code": "LA10998-5",
                              "display": "2-6 days (several days)"
                            }
                          }
                        ]
                      },
                      {
                        "linkId": "Section-4/D0200C2",
                        "text": "Trouble falling or staying asleep",
                        "answer": [
                          {
                            "valueCoding": {
                              "system": "http://loinc.org",
                              "code": "LA10998-5",
                              "display": "2-6 days (several days)"
                            }
                          }
                        ]
                      },
                      {
                        "linkId": "Section-4/D0200D2",
                        "text": "Feeling tired or having little energy",
                        "answer": [
                          {
                            "valueCoding": {
                              "system": "http://loinc.org",
                              "code": "LA10997-7",
                              "display": "Never or 1 day"
                            }
                          }
                        ]
                      },
                      {
                        "linkId": "Section-4/D0200E2",
                        "text": "Poor appetite or overeating",
                        "answer": [
                          {
                            "valueCoding": {
                              "system": "http://loinc.org",
                              "code": "LA10997-7",
                              "display": "Never or 1 day"
                            }
                          }
                        ]
                      },
                      {
                        "linkId": "Section-4/D0200F2",
                        "text": "Feeling bad about yourself - or that you are a failure or have let yourself or your family down",
                        "answer": [
                          {
                            "valueCoding": {
                              "system": "http://loinc.org",
                              "code": "LA10997-7",
                              "display": "Never or 1 day"
                            }
                          }
                        ]
                      },
                      {
                        "linkId": "Section-4/D0200G2",
                        "text": "Trouble concentrating on things",
                        "answer": [
                          {
                            "valueCoding": {
                              "system": "http://loinc.org",
                              "code": "LA10997-7",
                              "display": "Never or 1 day"
                            }
                          }
                        ]
                      },
                      {
                        "linkId": "Section-4/D0200H2",
                        "text": "Moving or speaking so slowly that other people could have noticed. Or the opposite - being so fidgety or restless that you have been moving around a lot more than usual",
                        "answer": [
                          {
                            "valueCoding": {
                              "system": "http://loinc.org",
                              "code": "LA10997-7",
                              "display": "Never or 1 day"
                            }
                          }
                        ]
                      },
                      {
                        "linkId": "Section-4/D0200I2",
                        "text": "Thoughts that you would be better off dead"
                      }
                    ]
                  }
                ]
              },
              {
                "linkId": "Section-4/D0300",
                "text": "PHQ-9 Total Score",
                "answer": [
                  {
                    "valueQuantity": {
                      "value": 3,
                      "system": "http://unitsofmeasure.org",
                      "code": "{score}"
                    }
                  }
                ]
              }
            ]
          }
        ],
        "resourceType": "QuestionnaireResponse"
      },
      "request": {
        "method": "PUT",
        "url": "QuestionnaireResponse/QResponse-SNF-PHQ9-1"
      }
    },
    {
      "fullUrl": "Location/Org-Loc-03",
      "resource": {
        "id": "Org-Loc-03",
        "text": {
          "status": "generated",
          "div": "<div xmlns=\"http://www.w3.org/1999/xhtml\"><p><b>Generated Narrative</b></p><p><b>status</b>: active</p><p><b>name</b>: Sky Harbor Home Health Services</p><p><b>address</b>: 8810 Old Sky Harbor, San Antonio, TX 78242</p></div>"
        },
        "status": "active",
        "name": "Sky Harbor Home Health Services",
        "address": {
          "text": "8810 Old Sky Harbor, San Antonio, TX 78242"
        },
        "resourceType": "Location"
      },
      "request": {
        "method": "PUT",
        "url": "Location/Org-Loc-03"
      }
    },
    {
      "fullUrl": "Observation/CSC-SNF-PHQ9-1-Ob-Question-11",
      "resource": {
        "id": "CSC-SNF-PHQ9-1-Ob-Question-11",
        "meta": {
          "profile": [
            "http://hl7.org/fhir/us/pacio-cs/StructureDefinition/pacio-cs"
          ]
        },
        "text": {
          "status": "extensions",
          "div": "<div xmlns=\"http://www.w3.org/1999/xhtml\"><p><b>Generated Narrative</b></p><p><b>ObservationEventLocation</b>: <a href=\"Location-Org-Loc-03.html\">Generated Summary: status: active; name: Sky Harbor Home Health Services</a></p><p></p><p><b>category</b>: <span title=\"Codes: {http://hl7.org/fhir/us/pacio-cs/CodeSystem/pacio-cat-cs functioning}\">Functioning</span>, <span title=\"Codes: {http://terminology.hl7.org/CodeSystem/observation-category survey}\">Survey</span></p><p><b>code</b>: <span title=\"Codes: {http://loinc.org 54636-6}\">Little interest or pleasure in doing things</span></p><p><b>subject</b>: <a href=\"Patient-patientBSJ1.html\">Generated Summary: Betsy Smith-Johnson</a></p><p><b>effective</b>: Jul 11, 2020 4:30:00 PM</p><p><b>performer</b>: <a href=\"PractitionerRole-Role-SLP-LunaBaskins.html\">Generated Summary: active: true; <span title=\"Codes: {http://snomed.info/sct 159026005}\">Speech and language therapist</span></a></p><p><b>value</b>: <span title=\"Codes: {http://loinc.org LA33-6}\">Yes</span></p><p><b>derivedFrom</b>: <a href=\"QuestionnaireResponse-QResponse-SNF-PHQ9-1.html\">Generated Summary: questionnaire: http://example.org/Questionnaire/MDS3.0-NC-1.17; status: completed; authored: Jul 11, 2020 4:30:00 PM</a></p></div>"
        },
        "extension": [
          {
            "url": "http://hl7.org/fhir/us/pacio-cs/StructureDefinition/event-location",
            "valueReference": {
              "reference": "Location/Org-Loc-03"
            }
          }
        ],
        "status": "final",
        "category": [
          {
            "coding": [
              {
                "system": "http://hl7.org/fhir/us/pacio-cs/CodeSystem/pacio-cat-cs",
                "code": "functioning",
                "display": "Functioning"
              }
            ]
          },
          {
            "coding": [
              {
                "system": "http://terminology.hl7.org/CodeSystem/observation-category",
                "code": "survey"
              }
            ]
          }
        ],
        "code": {
          "coding": [
            {
              "system": "http://loinc.org",
              "code": "54636-6",
              "display": "Little interest or pleasure in doing things in last 2 weeks.presence [Reported PHQ-9 CMS]"
            }
          ],
          "text": "Little interest or pleasure in doing things"
        },
        "subject": {
          "reference": "Patient/patientBSJ1"
        },
        "effectiveDateTime": "2020-07-11T11:30:00-05:00",
        "performer": [
          {
            "reference": "PractitionerRole/Role-SLP-LunaBaskins"
          }
        ],
        "valueCodeableConcept": {
          "coding": [
            {
              "system": "http://loinc.org",
              "code": "LA33-6",
              "display": "Yes"
            }
          ],
          "text": "Yes"
        },
        "derivedFrom": [
          {
            "reference": "QuestionnaireResponse/QResponse-SNF-PHQ9-1"
          }
        ],
        "resourceType": "Observation"
      },
      "request": {
        "method": "PUT",
        "url": "Observation/CSC-SNF-PHQ9-1-Ob-Question-11"
      }
    },
    {
      "fullUrl": "Observation/CSC-Hospital-MMSE-1-Ob-Question-31",
      "resource": {
        "id": "CSC-Hospital-MMSE-1-Ob-Question-31",
        "meta": {
          "profile": [
            "http://hl7.org/fhir/us/pacio-cs/StructureDefinition/pacio-cs"
          ]
        },
        "text": {
          "status": "extensions",
          "div": "<div xmlns=\"http://www.w3.org/1999/xhtml\"><p><b>Generated Narrative</b></p><p><b>ObservationEventLocation</b>: <a href=\"Location-Org-Loc-01.html\">Generated Summary: status: active; name: San Antonio General Hospital</a></p><p></p><p><b>category</b>: <span title=\"Codes: {http://hl7.org/fhir/us/pacio-cs/CodeSystem/pacio-cat-cs functioning}\">Functioning</span>, <span title=\"Codes: {http://terminology.hl7.org/CodeSystem/observation-category survey}\">Survey</span></p><p><b>code</b>: <span title=\"Codes: {http://loinc.org 72106-8}\">Total score [MMSE]</span></p><p><b>subject</b>: <a href=\"Patient-patientBSJ1.html\">Generated Summary: Betsy Smith-Johnson</a></p><p><b>effective</b>: Jul 8, 2020 10:32:00 PM</p><p><b>performer</b>: <a href=\"PractitionerRole-Role-SLP-JennyGlass.html\">Generated Summary: active: true; <span title=\"Codes: {http://snomed.info/sct 159026005}\">Speech and language therapist</span></a></p><p><b>value</b>: 20 {score}</p><p><b>derivedFrom</b>: <a href=\"QuestionnaireResponse-QResponse-Hospital-MMSE-1.html\">Generated Summary: questionnaire: http://example.org/Questionnaire/MDS3.0-NC-1.17; status: completed; authored: Jul 8, 2020 10:32:00 PM</a></p></div>"
        },
        "extension": [
          {
            "url": "http://hl7.org/fhir/us/pacio-cs/StructureDefinition/event-location",
            "valueReference": {
              "reference": "Location/Org-Loc-01"
            }
          }
        ],
        "status": "final",
        "category": [
          {
            "coding": [
              {
                "system": "http://hl7.org/fhir/us/pacio-cs/CodeSystem/pacio-cat-cs",
                "code": "functioning",
                "display": "Functioning"
              }
            ]
          },
          {
            "coding": [
              {
                "system": "http://terminology.hl7.org/CodeSystem/observation-category",
                "code": "survey"
              }
            ]
          }
        ],
        "code": {
          "coding": [
            {
              "system": "http://loinc.org",
              "code": "72106-8",
              "display": "Total score [MMSE]"
            }
          ],
          "text": "Total score [MMSE]"
        },
        "subject": {
          "reference": "Patient/patientBSJ1"
        },
        "effectiveDateTime": "2020-07-08T17:32:00-05:00",
        "performer": [
          {
            "reference": "PractitionerRole/Role-SLP-JennyGlass"
          }
        ],
        "valueQuantity": {
          "value": 20,
          "system": "http://unitsofmeasure.org",
          "code": "{score}"
        },
        "derivedFrom": [
          {
            "reference": "QuestionnaireResponse/QResponse-Hospital-MMSE-1"
          }
        ],
        "resourceType": "Observation"
      },
      "request": {
        "method": "PUT",
        "url": "Observation/CSC-Hospital-MMSE-1-Ob-Question-31"
      }
    },
    {
      "fullUrl": "Observation/CSC-SNF-PHQ9-1-Ob-Question-27",
      "resource": {
        "id": "CSC-SNF-PHQ9-1-Ob-Question-27",
        "meta": {
          "profile": [
            "http://hl7.org/fhir/us/pacio-cs/StructureDefinition/pacio-cs"
          ]
        },
        "text": {
          "status": "extensions",
          "div": "<div xmlns=\"http://www.w3.org/1999/xhtml\"><p><b>Generated Narrative</b></p><p><b>ObservationEventLocation</b>: <a href=\"Location-Org-Loc-03.html\">Generated Summary: status: active; name: Sky Harbor Home Health Services</a></p><p></p><p><b>category</b>: <span title=\"Codes: {http://hl7.org/fhir/us/pacio-cs/CodeSystem/pacio-cat-cs functioning}\">Functioning</span>, <span title=\"Codes: {http://terminology.hl7.org/CodeSystem/observation-category survey}\">Survey</span></p><p><b>code</b>: <span title=\"Codes: {http://loinc.org 54652-3}\">Thoughts that you would be better off dead</span></p><p><b>subject</b>: <a href=\"Patient-patientBSJ1.html\">Generated Summary: Betsy Smith-Johnson</a></p><p><b>effective</b>: Jul 11, 2020 4:30:00 PM</p><p><b>performer</b>: <a href=\"PractitionerRole-Role-SLP-LunaBaskins.html\">Generated Summary: active: true; <span title=\"Codes: {http://snomed.info/sct 159026005}\">Speech and language therapist</span></a></p><p><b>value</b>: <span title=\"Codes: {http://loinc.org LA10996-9}\">No response</span></p><p><b>derivedFrom</b>: <a href=\"QuestionnaireResponse-QResponse-SNF-PHQ9-1.html\">Generated Summary: questionnaire: http://example.org/Questionnaire/MDS3.0-NC-1.17; status: completed; authored: Jul 11, 2020 4:30:00 PM</a></p></div>"
        },
        "extension": [
          {
            "url": "http://hl7.org/fhir/us/pacio-cs/StructureDefinition/event-location",
            "valueReference": {
              "reference": "Location/Org-Loc-03"
            }
          }
        ],
        "status": "final",
        "category": [
          {
            "coding": [
              {
                "system": "http://hl7.org/fhir/us/pacio-cs/CodeSystem/pacio-cat-cs",
                "code": "functioning",
                "display": "Functioning"
              }
            ]
          },
          {
            "coding": [
              {
                "system": "http://terminology.hl7.org/CodeSystem/observation-category",
                "code": "survey"
              }
            ]
          }
        ],
        "code": {
          "coding": [
            {
              "system": "http://loinc.org",
              "code": "54652-3",
              "display": "Thoughts that you would be better off dead, or of hurting yourself in some way in last 2 weeks.presence [Reported PHQ-9 CMS]"
            }
          ],
          "text": "Thoughts that you would be better off dead"
        },
        "subject": {
          "reference": "Patient/patientBSJ1"
        },
        "effectiveDateTime": "2020-07-11T11:30:00-05:00",
        "performer": [
          {
            "reference": "PractitionerRole/Role-SLP-LunaBaskins"
          }
        ],
        "valueCodeableConcept": {
          "coding": [
            {
              "system": "http://loinc.org",
              "code": "LA10996-9",
              "display": "No response"
            }
          ],
          "text": "No response"
        },
        "derivedFrom": [
          {
            "reference": "QuestionnaireResponse/QResponse-SNF-PHQ9-1"
          }
        ],
        "resourceType": "Observation"
      },
      "request": {
        "method": "PUT",
        "url": "Observation/CSC-SNF-PHQ9-1-Ob-Question-27"
      }
    },
    {
      "fullUrl": "PractitionerRole/Role-SLP-JennyGlass",
      "resource": {
        "id": "Role-SLP-JennyGlass",
        "text": {
          "status": "generated",
          "div": "<div xmlns=\"http://www.w3.org/1999/xhtml\"><p><b>Generated Narrative</b></p><p><b>active</b>: true</p><p><b>practitioner</b>: <a href=\"Practitioner-Practitioner-JennyGlass.html\">Generated Summary: active: true; Jenny Glass; gender: female</a></p><p><b>organization</b>: <a href=\"Organization-Org-01.html\">Generated Summary: name: San Antonio General Hospital</a></p><p><b>code</b>: <span title=\"Codes: {http://snomed.info/sct 159026005}\">Speech and language therapist</span></p><p><b>location</b>: <a href=\"Location-Org-Loc-01.html\">Generated Summary: status: active; name: San Antonio General Hospital</a></p></div>"
        },
        "active": true,
        "practitioner": {
          "reference": "Practitioner/Practitioner-JennyGlass"
        },
        "organization": {
          "reference": "Organization/Org-01"
        },
        "code": [
          {
            "coding": [
              {
                "system": "http://snomed.info/sct",
                "code": "159026005",
                "display": "Speech and language therapist"
              }
            ]
          }
        ],
        "location": [
          {
            "reference": "Location/Org-Loc-01"
          }
        ],
        "resourceType": "PractitionerRole"
      },
      "request": {
        "method": "PUT",
        "url": "PractitionerRole/Role-SLP-JennyGlass"
      }
    },
    {
      "fullUrl": "Practitioner/Practitioner-HoneyJones",
      "resource": {
        "id": "Practitioner-HoneyJones",
        "text": {
          "status": "generated",
          "div": "<div xmlns=\"http://www.w3.org/1999/xhtml\"><p><b>Generated Narrative</b></p><p><b>active</b>: true</p><p><b>name</b>: Honey Jones</p><p><b>gender</b>: female</p></div>"
        },
        "active": true,
        "name": [
          {
            "text": "Honey Jones",
            "family": "Jones",
            "given": [
              "Honey"
            ]
          }
        ],
        "gender": "female",
        "resourceType": "Practitioner"
      },
      "request": {
        "method": "PUT",
        "url": "Practitioner/Practitioner-HoneyJones"
      }
    },
    {
      "fullUrl": "Observation/CSC-SNF-PHQ9-1",
      "resource": {
        "id": "CSC-SNF-PHQ9-1",
        "meta": {
          "profile": [
            "http://hl7.org/fhir/us/pacio-cs/StructureDefinition/pacio-csc"
          ]
        },
        "text": {
          "status": "extensions",
          "div": "<div xmlns=\"http://www.w3.org/1999/xhtml\"><p><b>Generated Narrative</b></p><p><b>ObservationEventLocation</b>: <a href=\"Location-Org-Loc-03.html\">Generated Summary: status: active; name: Sky Harbor Home Health Services</a></p><p></p><p><b>category</b>: <span title=\"Codes: {http://hl7.org/fhir/us/pacio-cs/CodeSystem/pacio-cat-cs functioning}\">Functioning</span>, <span title=\"Codes: {http://terminology.hl7.org/CodeSystem/observation-category survey}\">Survey</span></p><p><b>code</b>: <span title=\"Codes: {http://loinc.org 54635-8}\">Resident mood interview (PHQ-9) [Reported PHQ-9 CMS]</span></p><p><b>subject</b>: <a href=\"Patient-patientBSJ1.html\">Generated Summary: Betsy Smith-Johnson</a></p><p><b>effective</b>: Jul 11, 2020 4:30:00 PM</p><p><b>performer</b>: <a href=\"PractitionerRole-Role-SLP-LunaBaskins.html\">Generated Summary: active: true; <span title=\"Codes: {http://snomed.info/sct 159026005}\">Speech and language therapist</span></a></p><p><b>hasMember</b>: </p><ul><li><a href=\"Observation-CSC-SNF-PHQ9-1-Ob-Question-11.html\">Generated Summary: <span title=\"Codes: {http://hl7.org/fhir/us/pacio-cs/CodeSystem/pacio-cat-cs functioning}\">Functioning</span>, <span title=\"Codes: {http://terminology.hl7.org/CodeSystem/observation-category survey}\">Survey</span>; <span title=\"Codes: {http://loinc.org 54636-6}\">Little interest or pleasure in doing things</span>; effective: Jul 11, 2020 4:30:00 PM; <span title=\"Codes: {http://loinc.org LA33-6}\">Yes</span></a></li><li><a href=\"Observation-CSC-SNF-PHQ9-1-Ob-Question-12.html\">Generated Summary: <span title=\"Codes: {http://hl7.org/fhir/us/pacio-cs/CodeSystem/pacio-cat-cs functioning}\">Functioning</span>, <span title=\"Codes: {http://terminology.hl7.org/CodeSystem/observation-category survey}\">Survey</span>; <span title=\"Codes: {http://loinc.org 54637-4}\">Little interest or pleasure in doing things</span>; effective: Jul 11, 2020 4:30:00 PM; <span title=\"Codes: {http://loinc.org LA10998-5}\">2-6 days (several days)</span></a></li><li><a href=\"Observation-CSC-SNF-PHQ9-1-Ob-Question-13.html\">Generated Summary: <span title=\"Codes: {http://hl7.org/fhir/us/pacio-cs/CodeSystem/pacio-cat-cs functioning}\">Functioning</span>, <span title=\"Codes: {http://terminology.hl7.org/CodeSystem/observation-category survey}\">Survey</span>; <span title=\"Codes: {http://loinc.org 54638-2}\">Feeling down</span>; effective: Jul 11, 2020 4:30:00 PM; <span title=\"Codes: {http://loinc.org LA33-6}\">Yes</span></a></li><li><a href=\"Observation-CSC-SNF-PHQ9-1-Ob-Question-14.html\">Generated Summary: <span title=\"Codes: {http://hl7.org/fhir/us/pacio-cs/CodeSystem/pacio-cat-cs functioning}\">Functioning</span>, <span title=\"Codes: {http://terminology.hl7.org/CodeSystem/observation-category survey}\">Survey</span>; <span title=\"Codes: {http://loinc.org 54639-0}\">Feeling down</span>; effective: Jul 11, 2020 4:30:00 PM; <span title=\"Codes: {http://loinc.org LA10998-5}\">2-6 days (several days)</span></a></li><li><a href=\"Observation-CSC-SNF-PHQ9-1-Ob-Question-15.html\">Generated Summary: <span title=\"Codes: {http://hl7.org/fhir/us/pacio-cs/CodeSystem/pacio-cat-cs functioning}\">Functioning</span>, <span title=\"Codes: {http://terminology.hl7.org/CodeSystem/observation-category survey}\">Survey</span>; <span title=\"Codes: {http://loinc.org 54640-8}\">Trouble falling or staying asleep</span>; effective: Jul 11, 2020 4:30:00 PM; <span title=\"Codes: {http://loinc.org LA33-6}\">Yes</span></a></li><li><a href=\"Observation-CSC-SNF-PHQ9-1-Ob-Question-16.html\">Generated Summary: <span title=\"Codes: {http://hl7.org/fhir/us/pacio-cs/CodeSystem/pacio-cat-cs functioning}\">Functioning</span>, <span title=\"Codes: {http://terminology.hl7.org/CodeSystem/observation-category survey}\">Survey</span>; <span title=\"Codes: {http://loinc.org 54641-6}\">Trouble falling or staying asleep</span>; effective: Jul 11, 2020 4:30:00 PM; <span title=\"Codes: {http://loinc.org LA10998-5}\">2-6 days (several days)</span></a></li><li><a href=\"Observation-CSC-SNF-PHQ9-1-Ob-Question-17.html\">Generated Summary: <span title=\"Codes: {http://hl7.org/fhir/us/pacio-cs/CodeSystem/pacio-cat-cs functioning}\">Functioning</span>, <span title=\"Codes: {http://terminology.hl7.org/CodeSystem/observation-category survey}\">Survey</span>; <span title=\"Codes: {http://loinc.org 54642-4}\">Feeling tired or having little energy</span>; effective: Jul 11, 2020 4:30:00 PM; <span title=\"Codes: {http://loinc.org LA32-8}\">No</span></a></li><li><a href=\"Observation-CSC-SNF-PHQ9-1-Ob-Question-18.html\">Generated Summary: <span title=\"Codes: {http://hl7.org/fhir/us/pacio-cs/CodeSystem/pacio-cat-cs functioning}\">Functioning</span>, <span title=\"Codes: {http://terminology.hl7.org/CodeSystem/observation-category survey}\">Survey</span>; <span title=\"Codes: {http://loinc.org 54643-2}\">Feeling tired or having little energy</span>; effective: Jul 11, 2020 4:30:00 PM; <span title=\"Codes: {http://loinc.org LA10997-7}\">Never or 1 day</span></a></li><li><a href=\"Observation-CSC-SNF-PHQ9-1-Ob-Question-19.html\">Generated Summary: <span title=\"Codes: {http://hl7.org/fhir/us/pacio-cs/CodeSystem/pacio-cat-cs functioning}\">Functioning</span>, <span title=\"Codes: {http://terminology.hl7.org/CodeSystem/observation-category survey}\">Survey</span>; <span title=\"Codes: {http://loinc.org 54644-0}\">Poor appetite or overeating</span>; effective: Jul 11, 2020 4:30:00 PM; <span title=\"Codes: {http://loinc.org LA32-8}\">No</span></a></li><li><a href=\"Observation-CSC-SNF-PHQ9-1-Ob-Question-20.html\">Generated Summary: <span title=\"Codes: {http://hl7.org/fhir/us/pacio-cs/CodeSystem/pacio-cat-cs functioning}\">Functioning</span>, <span title=\"Codes: {http://terminology.hl7.org/CodeSystem/observation-category survey}\">Survey</span>; <span title=\"Codes: {http://loinc.org 54645-7}\">Poor appetite or overeating</span>; effective: Jul 11, 2020 4:30:00 PM; <span title=\"Codes: {http://loinc.org LA10997-7}\">Never or 1 day</span></a></li><li><a href=\"Observation-CSC-SNF-PHQ9-1-Ob-Question-21.html\">Generated Summary: <span title=\"Codes: {http://hl7.org/fhir/us/pacio-cs/CodeSystem/pacio-cat-cs functioning}\">Functioning</span>, <span title=\"Codes: {http://terminology.hl7.org/CodeSystem/observation-category survey}\">Survey</span>; <span title=\"Codes: {http://loinc.org 54646-5}\">Feeling bad about yourself - or that you are a failure or have let yourself or your family down</span>; effective: Jul 11, 2020 4:30:00 PM; <span title=\"Codes: {http://loinc.org LA32-8}\">No</span></a></li><li><a href=\"Observation-CSC-SNF-PHQ9-1-Ob-Question-22.html\">Generated Summary: <span title=\"Codes: {http://hl7.org/fhir/us/pacio-cs/CodeSystem/pacio-cat-cs functioning}\">Functioning</span>, <span title=\"Codes: {http://terminology.hl7.org/CodeSystem/observation-category survey}\">Survey</span>; <span title=\"Codes: {http://loinc.org 54647-3}\">Feeling bad about yourself - or that you are a failure or have let yourself or your family down</span>; effective: Jul 11, 2020 4:30:00 PM; <span title=\"Codes: {http://loinc.org LA10997-7}\">Never or 1 day</span></a></li><li><a href=\"Observation-CSC-SNF-PHQ9-1-Ob-Question-23.html\">Generated Summary: <span title=\"Codes: {http://hl7.org/fhir/us/pacio-cs/CodeSystem/pacio-cat-cs functioning}\">Functioning</span>, <span title=\"Codes: {http://terminology.hl7.org/CodeSystem/observation-category survey}\">Survey</span>; <span title=\"Codes: {http://loinc.org 54648-1}\">Trouble concentrating on things</span>; effective: Jul 11, 2020 4:30:00 PM; <span title=\"Codes: {http://loinc.org LA32-8}\">No</span></a></li><li><a href=\"Observation-CSC-SNF-PHQ9-1-Ob-Question-24.html\">Generated Summary: <span title=\"Codes: {http://hl7.org/fhir/us/pacio-cs/CodeSystem/pacio-cat-cs functioning}\">Functioning</span>, <span title=\"Codes: {http://terminology.hl7.org/CodeSystem/observation-category survey}\">Survey</span>; <span title=\"Codes: {http://loinc.org 54649-9}\">Trouble concentrating on things</span>; effective: Jul 11, 2020 4:30:00 PM; <span title=\"Codes: {http://loinc.org LA10997-7}\">Never or 1 day</span></a></li><li><a href=\"Observation-CSC-SNF-PHQ9-1-Ob-Question-25.html\">Generated Summary: <span title=\"Codes: {http://hl7.org/fhir/us/pacio-cs/CodeSystem/pacio-cat-cs functioning}\">Functioning</span>, <span title=\"Codes: {http://terminology.hl7.org/CodeSystem/observation-category survey}\">Survey</span>; <span title=\"Codes: {http://loinc.org 54650-7}\">Moving or speaking so slowly that other people could have noticed. Or the opposite - being so fidgety or restless that you have been moving around a lot more than usual</span>; effective: Jul 11, 2020 4:30:00 PM; <span title=\"Codes: {http://loinc.org LA32-8}\">No</span></a></li><li><a href=\"Observation-CSC-SNF-PHQ9-1-Ob-Question-26.html\">Generated Summary: <span title=\"Codes: {http://hl7.org/fhir/us/pacio-cs/CodeSystem/pacio-cat-cs functioning}\">Functioning</span>, <span title=\"Codes: {http://terminology.hl7.org/CodeSystem/observation-category survey}\">Survey</span>; <span title=\"Codes: {http://loinc.org 54651-5}\">Moving or speaking so slowly that other people could have noticed. Or the opposite - being so fidgety or restless that you have been moving around a lot more than usual</span>; effective: Jul 11, 2020 4:30:00 PM; <span title=\"Codes: {http://loinc.org LA10997-7}\">Never or 1 day</span></a></li><li><a href=\"Observation-CSC-SNF-PHQ9-1-Ob-Question-27.html\">Generated Summary: <span title=\"Codes: {http://hl7.org/fhir/us/pacio-cs/CodeSystem/pacio-cat-cs functioning}\">Functioning</span>, <span title=\"Codes: {http://terminology.hl7.org/CodeSystem/observation-category survey}\">Survey</span>; <span title=\"Codes: {http://loinc.org 54652-3}\">Thoughts that you would be better off dead</span>; effective: Jul 11, 2020 4:30:00 PM; <span title=\"Codes: {http://loinc.org LA10996-9}\">No response</span></a></li><li><a href=\"Observation-CSC-SNF-PHQ9-1-Ob-Question-28.html\">Generated Summary: <span title=\"Codes: {http://hl7.org/fhir/us/pacio-cs/CodeSystem/pacio-cat-cs functioning}\">Functioning</span>, <span title=\"Codes: {http://terminology.hl7.org/CodeSystem/observation-category survey}\">Survey</span>; <span title=\"Codes: {http://loinc.org 54653-1}\">Thoughts that you would be better off dead</span>; effective: Jul 11, 2020 4:30:00 PM; <span title=\"Codes: {http://terminology.hl7.org/CodeSystem/data-absent-reason not-asked}\">Not Asked</span></a></li><li><a href=\"Observation-CSC-SNF-PHQ9-1-Ob-Question-29.html\">Generated Summary: <span title=\"Codes: {http://hl7.org/fhir/us/pacio-cs/CodeSystem/pacio-cat-cs functioning}\">Functioning</span>, <span title=\"Codes: {http://terminology.hl7.org/CodeSystem/observation-category survey}\">Survey</span>; <span title=\"Codes: {http://loinc.org 54654-9}\">Total Severity Score</span>; effective: Jul 11, 2020 4:30:00 PM; 3 {score}</a></li></ul><p><b>derivedFrom</b>: <a href=\"QuestionnaireResponse-QResponse-SNF-PHQ9-1.html\">Generated Summary: questionnaire: http://example.org/Questionnaire/MDS3.0-NC-1.17; status: completed; authored: Jul 11, 2020 4:30:00 PM</a></p></div>"
        },
        "extension": [
          {
            "url": "http://hl7.org/fhir/us/pacio-cs/StructureDefinition/event-location",
            "valueReference": {
              "reference": "Location/Org-Loc-03"
            }
          }
        ],
        "status": "final",
        "category": [
          {
            "coding": [
              {
                "system": "http://hl7.org/fhir/us/pacio-cs/CodeSystem/pacio-cat-cs",
                "code": "functioning",
                "display": "Functioning"
              }
            ]
          },
          {
            "coding": [
              {
                "system": "http://terminology.hl7.org/CodeSystem/observation-category",
                "code": "survey",
                "display": "Survey"
              }
            ]
          }
        ],
        "code": {
          "coding": [
            {
              "system": "http://loinc.org",
              "code": "54635-8",
              "display": "Resident mood interview (PHQ-9) [Reported PHQ-9 CMS]"
            }
          ]
        },
        "subject": {
          "reference": "Patient/patientBSJ1"
        },
        "effectiveDateTime": "2020-07-11T11:30:00-05:00",
        "performer": [
          {
            "reference": "PractitionerRole/Role-SLP-LunaBaskins"
          }
        ],
        "hasMember": [
          {
            "reference": "Observation/CSC-SNF-PHQ9-1-Ob-Question-11"
          },
          {
            "reference": "Observation/CSC-SNF-PHQ9-1-Ob-Question-12"
          },
          {
            "reference": "Observation/CSC-SNF-PHQ9-1-Ob-Question-13"
          },
          {
            "reference": "Observation/CSC-SNF-PHQ9-1-Ob-Question-14"
          },
          {
            "reference": "Observation/CSC-SNF-PHQ9-1-Ob-Question-15"
          },
          {
            "reference": "Observation/CSC-SNF-PHQ9-1-Ob-Question-16"
          },
          {
            "reference": "Observation/CSC-SNF-PHQ9-1-Ob-Question-17"
          },
          {
            "reference": "Observation/CSC-SNF-PHQ9-1-Ob-Question-18"
          },
          {
            "reference": "Observation/CSC-SNF-PHQ9-1-Ob-Question-19"
          },
          {
            "reference": "Observation/CSC-SNF-PHQ9-1-Ob-Question-20"
          },
          {
            "reference": "Observation/CSC-SNF-PHQ9-1-Ob-Question-21"
          },
          {
            "reference": "Observation/CSC-SNF-PHQ9-1-Ob-Question-22"
          },
          {
            "reference": "Observation/CSC-SNF-PHQ9-1-Ob-Question-23"
          },
          {
            "reference": "Observation/CSC-SNF-PHQ9-1-Ob-Question-24"
          },
          {
            "reference": "Observation/CSC-SNF-PHQ9-1-Ob-Question-25"
          },
          {
            "reference": "Observation/CSC-SNF-PHQ9-1-Ob-Question-26"
          },
          {
            "reference": "Observation/CSC-SNF-PHQ9-1-Ob-Question-27"
          },
          {
            "reference": "Observation/CSC-SNF-PHQ9-1-Ob-Question-28"
          },
          {
            "reference": "Observation/CSC-SNF-PHQ9-1-Ob-Question-29"
          }
        ],
        "derivedFrom": [
          {
            "reference": "QuestionnaireResponse/QResponse-SNF-PHQ9-1"
          }
        ],
        "resourceType": "Observation"
      },
      "request": {
        "method": "PUT",
        "url": "Observation/CSC-SNF-PHQ9-1"
      }
    },
    {
      "fullUrl": "Observation/CSC-SNF-PHQ9-1-Ob-Question-24",
      "resource": {
        "id": "CSC-SNF-PHQ9-1-Ob-Question-24",
        "meta": {
          "profile": [
            "http://hl7.org/fhir/us/pacio-cs/StructureDefinition/pacio-cs"
          ]
        },
        "text": {
          "status": "extensions",
          "div": "<div xmlns=\"http://www.w3.org/1999/xhtml\"><p><b>Generated Narrative</b></p><p><b>ObservationEventLocation</b>: <a href=\"Location-Org-Loc-03.html\">Generated Summary: status: active; name: Sky Harbor Home Health Services</a></p><p></p><p><b>category</b>: <span title=\"Codes: {http://hl7.org/fhir/us/pacio-cs/CodeSystem/pacio-cat-cs functioning}\">Functioning</span>, <span title=\"Codes: {http://terminology.hl7.org/CodeSystem/observation-category survey}\">Survey</span></p><p><b>code</b>: <span title=\"Codes: {http://loinc.org 54649-9}\">Trouble concentrating on things</span></p><p><b>subject</b>: <a href=\"Patient-patientBSJ1.html\">Generated Summary: Betsy Smith-Johnson</a></p><p><b>effective</b>: Jul 11, 2020 4:30:00 PM</p><p><b>performer</b>: <a href=\"PractitionerRole-Role-SLP-LunaBaskins.html\">Generated Summary: active: true; <span title=\"Codes: {http://snomed.info/sct 159026005}\">Speech and language therapist</span></a></p><p><b>value</b>: <span title=\"Codes: {http://loinc.org LA10997-7}\">Never or 1 day</span></p><p><b>derivedFrom</b>: <a href=\"QuestionnaireResponse-QResponse-SNF-PHQ9-1.html\">Generated Summary: questionnaire: http://example.org/Questionnaire/MDS3.0-NC-1.17; status: completed; authored: Jul 11, 2020 4:30:00 PM</a></p></div>"
        },
        "extension": [
          {
            "url": "http://hl7.org/fhir/us/pacio-cs/StructureDefinition/event-location",
            "valueReference": {
              "reference": "Location/Org-Loc-03"
            }
          }
        ],
        "status": "final",
        "category": [
          {
            "coding": [
              {
                "system": "http://hl7.org/fhir/us/pacio-cs/CodeSystem/pacio-cat-cs",
                "code": "functioning",
                "display": "Functioning"
              }
            ]
          },
          {
            "coding": [
              {
                "system": "http://terminology.hl7.org/CodeSystem/observation-category",
                "code": "survey"
              }
            ]
          }
        ],
        "code": {
          "coding": [
            {
              "system": "http://loinc.org",
              "code": "54649-9",
              "display": "Trouble concentrating on things, such as reading the newspaper or watching television in last 2 weeks.frequency [Reported PHQ-9 CMS]"
            }
          ],
          "text": "Trouble concentrating on things"
        },
        "subject": {
          "reference": "Patient/patientBSJ1"
        },
        "effectiveDateTime": "2020-07-11T11:30:00-05:00",
        "performer": [
          {
            "reference": "PractitionerRole/Role-SLP-LunaBaskins"
          }
        ],
        "valueCodeableConcept": {
          "coding": [
            {
              "system": "http://loinc.org",
              "code": "LA10997-7",
              "display": "Never or 1 day"
            }
          ],
          "text": "Never or 1 day"
        },
        "derivedFrom": [
          {
            "reference": "QuestionnaireResponse/QResponse-SNF-PHQ9-1"
          }
        ],
        "resourceType": "Observation"
      },
      "request": {
        "method": "PUT",
        "url": "Observation/CSC-SNF-PHQ9-1-Ob-Question-24"
      }
    },
    {
      "fullUrl": "Observation/CSC-SNF-CAM-Admission-1-Ob-Question-5",
      "resource": {
        "id": "CSC-SNF-CAM-Admission-1-Ob-Question-5",
        "meta": {
          "profile": [
            "http://hl7.org/fhir/us/pacio-cs/StructureDefinition/pacio-cs"
          ]
        },
        "text": {
          "status": "extensions",
          "div": "<div xmlns=\"http://www.w3.org/1999/xhtml\"><p><b>Generated Narrative</b></p><p><b>ObservationEventLocation</b>: <a href=\"Location-Org-Loc-02.html\">Generated Summary: status: active; name: Happy Nursing Facility</a></p><p></p><p><b>category</b>: <span title=\"Codes: {http://hl7.org/fhir/us/pacio-cs/CodeSystem/pacio-cat-cs functioning}\">Functioning</span>, <span title=\"Codes: {http://terminology.hl7.org/CodeSystem/observation-category survey}\">Survey</span></p><p><b>code</b>: <span title=\"Codes: {http://loinc.org 54629-1}\">Disorganized Thinking - Was the resident's thinking disorganized or incoherent (rambling or irrelevant conversation, unclear or illogical flow of ideas, or unpredictable switching from subject to subject)?</span></p><p><b>subject</b>: <a href=\"Patient-patientBSJ1.html\">Generated Summary: Betsy Smith-Johnson</a></p><p><b>effective</b>: Apr 9, 2020 11:00:00 PM</p><p><b>performer</b>: <a href=\"PractitionerRole-Role-SLP-HoneyJones.html\">Generated Summary: active: true; <span title=\"Codes: {http://snomed.info/sct 159026005}\">Speech and language therapist</span></a></p><p><b>value</b>: <span title=\"Codes: {http://loinc.org LA61-7}\">Behavior not present</span></p><p><b>derivedFrom</b>: <a href=\"QuestionnaireResponse-QResponse-SNF-CAM-Admission-1.html\">Generated Summary: questionnaire: http://example.org/Questionnaire/MDS3.0-NC-1.17; status: completed; authored: Apr 9, 2020 11:00:00 PM</a></p></div>"
        },
        "extension": [
          {
            "url": "http://hl7.org/fhir/us/pacio-cs/StructureDefinition/event-location",
            "valueReference": {
              "reference": "Location/Org-Loc-02"
            }
          }
        ],
        "status": "final",
        "category": [
          {
            "coding": [
              {
                "system": "http://hl7.org/fhir/us/pacio-cs/CodeSystem/pacio-cat-cs",
                "code": "functioning",
                "display": "Functioning"
              }
            ]
          },
          {
            "coding": [
              {
                "system": "http://terminology.hl7.org/CodeSystem/observation-category",
                "code": "survey",
                "display": "Survey"
              }
            ]
          }
        ],
        "code": {
          "coding": [
            {
              "system": "http://loinc.org",
              "code": "54629-1",
              "display": "Disorganized thinking in last 7 days [CAM.CMS]"
            }
          ],
          "text": "Disorganized Thinking - Was the resident's thinking disorganized or incoherent (rambling or irrelevant conversation, unclear or illogical flow of ideas, or unpredictable switching from subject to subject)?"
        },
        "subject": {
          "reference": "Patient/patientBSJ1"
        },
        "effectiveDateTime": "2020-04-09T18:00:00-05:00",
        "performer": [
          {
            "reference": "PractitionerRole/Role-SLP-HoneyJones"
          }
        ],
        "valueCodeableConcept": {
          "coding": [
            {
              "system": "http://loinc.org",
              "code": "LA61-7",
              "display": "Behavior not present"
            }
          ],
          "text": "Behavior not present"
        },
        "derivedFrom": [
          {
            "reference": "QuestionnaireResponse/QResponse-SNF-CAM-Admission-1"
          }
        ],
        "resourceType": "Observation"
      },
      "request": {
        "method": "PUT",
        "url": "Observation/CSC-SNF-CAM-Admission-1-Ob-Question-5"
      }
    },
    {
      "fullUrl": "Observation/CSC-SNF-PHQ9-1-Ob-Question-28",
      "resource": {
        "id": "CSC-SNF-PHQ9-1-Ob-Question-28",
        "meta": {
          "profile": [
            "http://hl7.org/fhir/us/pacio-cs/StructureDefinition/pacio-cs"
          ]
        },
        "text": {
          "status": "extensions",
          "div": "<div xmlns=\"http://www.w3.org/1999/xhtml\"><p><b>Generated Narrative</b></p><p><b>ObservationEventLocation</b>: <a href=\"Location-Org-Loc-03.html\">Generated Summary: status: active; name: Sky Harbor Home Health Services</a></p><p></p><p><b>category</b>: <span title=\"Codes: {http://hl7.org/fhir/us/pacio-cs/CodeSystem/pacio-cat-cs functioning}\">Functioning</span>, <span title=\"Codes: {http://terminology.hl7.org/CodeSystem/observation-category survey}\">Survey</span></p><p><b>code</b>: <span title=\"Codes: {http://loinc.org 54653-1}\">Thoughts that you would be better off dead</span></p><p><b>subject</b>: <a href=\"Patient-patientBSJ1.html\">Generated Summary: Betsy Smith-Johnson</a></p><p><b>effective</b>: Jul 11, 2020 4:30:00 PM</p><p><b>performer</b>: <a href=\"PractitionerRole-Role-SLP-LunaBaskins.html\">Generated Summary: active: true; <span title=\"Codes: {http://snomed.info/sct 159026005}\">Speech and language therapist</span></a></p><p><b>dataAbsentReason</b>: <span title=\"Codes: {http://terminology.hl7.org/CodeSystem/data-absent-reason not-asked}\">Not Asked</span></p><p><b>derivedFrom</b>: <a href=\"QuestionnaireResponse-QResponse-SNF-PHQ9-1.html\">Generated Summary: questionnaire: http://example.org/Questionnaire/MDS3.0-NC-1.17; status: completed; authored: Jul 11, 2020 4:30:00 PM</a></p></div>"
        },
        "extension": [
          {
            "url": "http://hl7.org/fhir/us/pacio-cs/StructureDefinition/event-location",
            "valueReference": {
              "reference": "Location/Org-Loc-03"
            }
          }
        ],
        "status": "final",
        "category": [
          {
            "coding": [
              {
                "system": "http://hl7.org/fhir/us/pacio-cs/CodeSystem/pacio-cat-cs",
                "code": "functioning",
                "display": "Functioning"
              }
            ]
          },
          {
            "coding": [
              {
                "system": "http://terminology.hl7.org/CodeSystem/observation-category",
                "code": "survey"
              }
            ]
          }
        ],
        "code": {
          "coding": [
            {
              "system": "http://loinc.org",
              "code": "54653-1",
              "display": "Thoughts that you would be better off dead, or of hurting yourself in some way in last 2 weeks.frequency [Reported PHQ-9 CMS]"
            }
          ],
          "text": "Thoughts that you would be better off dead"
        },
        "subject": {
          "reference": "Patient/patientBSJ1"
        },
        "effectiveDateTime": "2020-07-11T11:30:00-05:00",
        "performer": [
          {
            "reference": "PractitionerRole/Role-SLP-LunaBaskins"
          }
        ],
        "dataAbsentReason": {
          "coding": [
            {
              "system": "http://terminology.hl7.org/CodeSystem/data-absent-reason",
              "code": "not-asked",
              "display": "Not Asked"
            }
          ]
        },
        "derivedFrom": [
          {
            "reference": "QuestionnaireResponse/QResponse-SNF-PHQ9-1"
          }
        ],
        "resourceType": "Observation"
      },
      "request": {
        "method": "PUT",
        "url": "Observation/CSC-SNF-PHQ9-1-Ob-Question-28"
      }
    },
    {
      "fullUrl": "DeviceUseStatement/CSC-SNF-BIMS-1-UseOfDevice-1",
      "resource": {
        "id": "CSC-SNF-BIMS-1-UseOfDevice-1",
        "meta": {
          "profile": [
            "http://hl7.org/fhir/us/pacio-cs/StructureDefinition/pacio-cs-dev"
          ]
        },
        "text": {
          "status": "generated",
          "div": "<div xmlns=\"http://www.w3.org/1999/xhtml\"><p><b>Generated Narrative</b></p><p><b>status</b>: active</p><p><b>subject</b>: <a href=\"Patient-patientBSJ1.html\">Generated Summary: Betsy Smith-Johnson</a></p><p><b>derivedFrom</b>: <a href=\"Observation-CSC-SNF-BIMS-1.html\">Generated Summary: <span title=\"Codes: {http://hl7.org/fhir/us/pacio-cs/CodeSystem/pacio-cat-cs functioning}\">Functioning</span>, <span title=\"Codes: {http://terminology.hl7.org/CodeSystem/observation-category survey}\">Survey</span>; <span title=\"Codes: {http://loinc.org 52491-8}\">Brief interview for mental status [BIMS]</span>; effective: Jul 11, 2020 4:30:00 PM</a></p><p><b>recordedOn</b>: Jul 11, 2020 4:30:00 PM</p><p><b>source</b>: <a href=\"Practitioner-Practitioner-HoneyJones.html\">Generated Summary: active: true; Honey Jones; gender: female</a></p><p><b>device</b>: <a href=\"Device-CMS-Device-Eyeglasses.html\">Generated Summary: <span title=\"Codes: {http://snomed.info/sct 50121007}\">Eye glasses, device (physical object)</span></a></p></div>"
        },
        "status": "active",
        "subject": {
          "reference": "Patient/patientBSJ1"
        },
        "derivedFrom": [
          {
            "reference": "Observation/CSC-SNF-BIMS-1"
          }
        ],
        "recordedOn": "2020-07-11T11:30:00-05:00",
        "source": {
          "reference": "Practitioner/Practitioner-HoneyJones"
        },
        "device": {
          "reference": "Device/CMS-Device-Eyeglasses"
        },
        "resourceType": "DeviceUseStatement"
      },
      "request": {
        "method": "PUT",
        "url": "DeviceUseStatement/CSC-SNF-BIMS-1-UseOfDevice-1"
      }
    },
    {
      "fullUrl": "PractitionerRole/provider-role-neurologist",
      "resource": {
        "id": "provider-role-neurologist",
        "text": {
          "status": "generated",
          "div": "<div xmlns=\"http://www.w3.org/1999/xhtml\"><p><b>Generated Narrative</b></p><p><b>active</b>: true</p><p><b>practitioner</b>: <a href=\"Practitioner-Practitioner-NoraOlogist.html\">Generated Summary: id: 3668788925; active: true; Nora Ologist; gender: female</a></p><p><b>organization</b>: <a href=\"Organization-provider-org-16.html\">Generated Summary: name: Neuro Care INC.</a></p><p><b>code</b>: <span title=\"Codes: {http://nucc.org/provider-taxonomy 2084N0400X}\">Neurology Physician</span></p><p><b>location</b>: <a href=\"Location-provider-org-loc-16.html\">Generated Summary: status: active; name: Neuro Care INC.</a></p></div>"
        },
        "active": true,
        "practitioner": {
          "reference": "Practitioner/Practitioner-NoraOlogist"
        },
        "organization": {
          "reference": "Organization/provider-org-16"
        },
        "code": [
          {
            "coding": [
              {
                "system": "http://nucc.org/provider-taxonomy",
                "code": "2084N0400X",
                "display": "Neurology Physician"
              }
            ]
          }
        ],
        "location": [
          {
            "reference": "Location/provider-org-loc-16"
          }
        ],
        "resourceType": "PractitionerRole"
      },
      "request": {
        "method": "PUT",
        "url": "PractitionerRole/provider-role-neurologist"
      }
    },
    {
      "fullUrl": "Observation/CSC-SNF-PHQ9-1-Ob-Question-12",
      "resource": {
        "id": "CSC-SNF-PHQ9-1-Ob-Question-12",
        "meta": {
          "profile": [
            "http://hl7.org/fhir/us/pacio-cs/StructureDefinition/pacio-cs"
          ]
        },
        "text": {
          "status": "extensions",
          "div": "<div xmlns=\"http://www.w3.org/1999/xhtml\"><p><b>Generated Narrative</b></p><p><b>ObservationEventLocation</b>: <a href=\"Location-Org-Loc-03.html\">Generated Summary: status: active; name: Sky Harbor Home Health Services</a></p><p></p><p><b>category</b>: <span title=\"Codes: {http://hl7.org/fhir/us/pacio-cs/CodeSystem/pacio-cat-cs functioning}\">Functioning</span>, <span title=\"Codes: {http://terminology.hl7.org/CodeSystem/observation-category survey}\">Survey</span></p><p><b>code</b>: <span title=\"Codes: {http://loinc.org 54637-4}\">Little interest or pleasure in doing things</span></p><p><b>subject</b>: <a href=\"Patient-patientBSJ1.html\">Generated Summary: Betsy Smith-Johnson</a></p><p><b>effective</b>: Jul 11, 2020 4:30:00 PM</p><p><b>performer</b>: <a href=\"PractitionerRole-Role-SLP-LunaBaskins.html\">Generated Summary: active: true; <span title=\"Codes: {http://snomed.info/sct 159026005}\">Speech and language therapist</span></a></p><p><b>value</b>: <span title=\"Codes: {http://loinc.org LA10998-5}\">2-6 days (several days)</span></p><p><b>derivedFrom</b>: <a href=\"QuestionnaireResponse-QResponse-SNF-PHQ9-1.html\">Generated Summary: questionnaire: http://example.org/Questionnaire/MDS3.0-NC-1.17; status: completed; authored: Jul 11, 2020 4:30:00 PM</a></p></div>"
        },
        "extension": [
          {
            "url": "http://hl7.org/fhir/us/pacio-cs/StructureDefinition/event-location",
            "valueReference": {
              "reference": "Location/Org-Loc-03"
            }
          }
        ],
        "status": "final",
        "category": [
          {
            "coding": [
              {
                "system": "http://hl7.org/fhir/us/pacio-cs/CodeSystem/pacio-cat-cs",
                "code": "functioning",
                "display": "Functioning"
              }
            ]
          },
          {
            "coding": [
              {
                "system": "http://terminology.hl7.org/CodeSystem/observation-category",
                "code": "survey"
              }
            ]
          }
        ],
        "code": {
          "coding": [
            {
              "system": "http://loinc.org",
              "code": "54637-4",
              "display": "Little interest or pleasure in doing things in last 2 weeks.frequency [Reported PHQ-9 CMS]"
            }
          ],
          "text": "Little interest or pleasure in doing things"
        },
        "subject": {
          "reference": "Patient/patientBSJ1"
        },
        "effectiveDateTime": "2020-07-11T11:30:00-05:00",
        "performer": [
          {
            "reference": "PractitionerRole/Role-SLP-LunaBaskins"
          }
        ],
        "valueCodeableConcept": {
          "coding": [
            {
              "system": "http://loinc.org",
              "code": "LA10998-5",
              "display": "2-6 days (several days)"
            }
          ],
          "text": "2-6 days (several days)"
        },
        "derivedFrom": [
          {
            "reference": "QuestionnaireResponse/QResponse-SNF-PHQ9-1"
          }
        ],
        "resourceType": "Observation"
      },
      "request": {
        "method": "PUT",
        "url": "Observation/CSC-SNF-PHQ9-1-Ob-Question-12"
      }
    },
    {
      "fullUrl": "Practitioner/Practitioner-LunaBaskins",
      "resource": {
        "id": "Practitioner-LunaBaskins",
        "text": {
          "status": "generated",
          "div": "<div xmlns=\"http://www.w3.org/1999/xhtml\"><p><b>Generated Narrative</b></p><p><b>active</b>: true</p><p><b>name</b>: Luna Baskins</p><p><b>gender</b>: female</p></div>"
        },
        "active": true,
        "name": [
          {
            "text": "Luna Baskins",
            "family": "Baskins",
            "given": [
              "Luna"
            ]
          }
        ],
        "gender": "female",
        "resourceType": "Practitioner"
      },
      "request": {
        "method": "PUT",
        "url": "Practitioner/Practitioner-LunaBaskins"
      }
    },
    {
      "fullUrl": "Practitioner/Practitioner-NoraOlogist",
      "resource": {
        "id": "Practitioner-NoraOlogist",
        "text": {
          "status": "generated",
          "div": "<div xmlns=\"http://www.w3.org/1999/xhtml\"><p><b>Generated Narrative</b></p><p><b>identifier</b>: id: 3668788925</p><p><b>active</b>: true</p><p><b>name</b>: Nora Ologist</p><p><b>gender</b>: female</p></div>"
        },
        "identifier": [
          {
            "system": "http://hl7.org/fhir/sid/us-npi",
            "value": "3668788925"
          }
        ],
        "active": true,
        "name": [
          {
            "text": "Nora Ologist",
            "family": "Ologist",
            "given": [
              "Nora"
            ]
          }
        ],
        "gender": "female",
        "resourceType": "Practitioner"
      },
      "request": {
        "method": "PUT",
        "url": "Practitioner/Practitioner-NoraOlogist"
      }
    },
    {
      "fullUrl": "Observation/CSC-SNF-BIMS-1-Ob-Question-10",
      "resource": {
        "id": "CSC-SNF-BIMS-1-Ob-Question-10",
        "meta": {
          "profile": [
            "http://hl7.org/fhir/us/pacio-cs/StructureDefinition/pacio-cs"
          ]
        },
        "text": {
          "status": "extensions",
          "div": "<div xmlns=\"http://www.w3.org/1999/xhtml\"><p><b>Generated Narrative</b></p><p><b>ObservationEventLocation</b>: <a href=\"Location-Org-Loc-02.html\">Generated Summary: status: active; name: Happy Nursing Facility</a></p><p></p><p><b>category</b>: <span title=\"Codes: {http://hl7.org/fhir/us/pacio-cs/CodeSystem/pacio-cat-cs functioning}\">Functioning</span>, <span title=\"Codes: {http://terminology.hl7.org/CodeSystem/observation-category survey}\">Survey</span></p><p><b>code</b>: <span title=\"Codes: {http://loinc.org 54614-3}\">BIMS Summary Score\t\t\t{score}</span></p><p><b>subject</b>: <a href=\"Patient-patientBSJ1.html\">Generated Summary: Betsy Smith-Johnson</a></p><p><b>effective</b>: Jul 11, 2020 4:30:00 PM</p><p><b>performer</b>: <a href=\"PractitionerRole-Role-SLP-HoneyJones.html\">Generated Summary: active: true; <span title=\"Codes: {http://snomed.info/sct 159026005}\">Speech and language therapist</span></a></p><p><b>value</b>: 9 {score}</p><p><b>derivedFrom</b>: <a href=\"QuestionnaireResponse-QResponse-SNF-BIMS-1.html\">Generated Summary: questionnaire: http://example.org/Questionnaire/MDS3.0-NC-1.17; status: completed; authored: Jul 11, 2020 4:30:00 PM</a></p></div>"
        },
        "extension": [
          {
            "url": "http://hl7.org/fhir/us/pacio-cs/StructureDefinition/event-location",
            "valueReference": {
              "reference": "Location/Org-Loc-02"
            }
          }
        ],
        "status": "final",
        "category": [
          {
            "coding": [
              {
                "system": "http://hl7.org/fhir/us/pacio-cs/CodeSystem/pacio-cat-cs",
                "code": "functioning",
                "display": "Functioning"
              }
            ]
          },
          {
            "coding": [
              {
                "system": "http://terminology.hl7.org/CodeSystem/observation-category",
                "code": "survey"
              }
            ]
          }
        ],
        "code": {
          "coding": [
            {
              "system": "http://loinc.org",
              "code": "54614-3",
              "display": "Brief Interview for Mental Status - summary score [BIMS]"
            }
          ],
          "text": "BIMS Summary Score\t\t\t{score}"
        },
        "subject": {
          "reference": "Patient/patientBSJ1"
        },
        "effectiveDateTime": "2020-07-11T11:30:00-05:00",
        "performer": [
          {
            "reference": "PractitionerRole/Role-SLP-HoneyJones"
          }
        ],
        "valueQuantity": {
          "value": 9,
          "system": "http://unitsofmeasure.org",
          "code": "{score}"
        },
        "derivedFrom": [
          {
            "reference": "QuestionnaireResponse/QResponse-SNF-BIMS-1"
          }
        ],
        "resourceType": "Observation"
      },
      "request": {
        "method": "PUT",
        "url": "Observation/CSC-SNF-BIMS-1-Ob-Question-10"
      }
    },
    {
      "fullUrl": "Observation/CSC-SNF-PHQ9-1-Ob-Question-13",
      "resource": {
        "id": "CSC-SNF-PHQ9-1-Ob-Question-13",
        "meta": {
          "profile": [
            "http://hl7.org/fhir/us/pacio-cs/StructureDefinition/pacio-cs"
          ]
        },
        "text": {
          "status": "extensions",
          "div": "<div xmlns=\"http://www.w3.org/1999/xhtml\"><p><b>Generated Narrative</b></p><p><b>ObservationEventLocation</b>: <a href=\"Location-Org-Loc-03.html\">Generated Summary: status: active; name: Sky Harbor Home Health Services</a></p><p></p><p><b>category</b>: <span title=\"Codes: {http://hl7.org/fhir/us/pacio-cs/CodeSystem/pacio-cat-cs functioning}\">Functioning</span>, <span title=\"Codes: {http://terminology.hl7.org/CodeSystem/observation-category survey}\">Survey</span></p><p><b>code</b>: <span title=\"Codes: {http://loinc.org 54638-2}\">Feeling down</span></p><p><b>subject</b>: <a href=\"Patient-patientBSJ1.html\">Generated Summary: Betsy Smith-Johnson</a></p><p><b>effective</b>: Jul 11, 2020 4:30:00 PM</p><p><b>performer</b>: <a href=\"PractitionerRole-Role-SLP-LunaBaskins.html\">Generated Summary: active: true; <span title=\"Codes: {http://snomed.info/sct 159026005}\">Speech and language therapist</span></a></p><p><b>value</b>: <span title=\"Codes: {http://loinc.org LA33-6}\">Yes</span></p><p><b>derivedFrom</b>: <a href=\"QuestionnaireResponse-QResponse-SNF-PHQ9-1.html\">Generated Summary: questionnaire: http://example.org/Questionnaire/MDS3.0-NC-1.17; status: completed; authored: Jul 11, 2020 4:30:00 PM</a></p></div>"
        },
        "extension": [
          {
            "url": "http://hl7.org/fhir/us/pacio-cs/StructureDefinition/event-location",
            "valueReference": {
              "reference": "Location/Org-Loc-03"
            }
          }
        ],
        "status": "final",
        "category": [
          {
            "coding": [
              {
                "system": "http://hl7.org/fhir/us/pacio-cs/CodeSystem/pacio-cat-cs",
                "code": "functioning",
                "display": "Functioning"
              }
            ]
          },
          {
            "coding": [
              {
                "system": "http://terminology.hl7.org/CodeSystem/observation-category",
                "code": "survey"
              }
            ]
          }
        ],
        "code": {
          "coding": [
            {
              "system": "http://loinc.org",
              "code": "54638-2",
              "display": "Feeling down, depressed or hopeless in last 2 weeks.presence [Reported PHQ-9 CMS]"
            }
          ],
          "text": "Feeling down"
        },
        "subject": {
          "reference": "Patient/patientBSJ1"
        },
        "effectiveDateTime": "2020-07-11T11:30:00-05:00",
        "performer": [
          {
            "reference": "PractitionerRole/Role-SLP-LunaBaskins"
          }
        ],
        "valueCodeableConcept": {
          "coding": [
            {
              "system": "http://loinc.org",
              "code": "LA33-6",
              "display": "Yes"
            }
          ],
          "text": "Yes"
        },
        "derivedFrom": [
          {
            "reference": "QuestionnaireResponse/QResponse-SNF-PHQ9-1"
          }
        ],
        "resourceType": "Observation"
      },
      "request": {
        "method": "PUT",
        "url": "Observation/CSC-SNF-PHQ9-1-Ob-Question-13"
      }
    },
    {
      "fullUrl": "Location/Org-Loc-01",
      "resource": {
        "id": "Org-Loc-01",
        "text": {
          "status": "generated",
          "div": "<div xmlns=\"http://www.w3.org/1999/xhtml\"><p><b>Generated Narrative</b></p><p><b>status</b>: active</p><p><b>name</b>: San Antonio General Hospital</p><p><b>address</b>: 26022 Meadowlark Bay, San Antonio, TX 78260</p></div>"
        },
        "status": "active",
        "name": "San Antonio General Hospital",
        "address": {
          "text": "26022 Meadowlark Bay, San Antonio, TX 78260"
        },
        "resourceType": "Location"
      },
      "request": {
        "method": "PUT",
        "url": "Location/Org-Loc-01"
      }
    },
    {
      "fullUrl": "Observation/CSC-SNF-BIMS-1-Ob-Question-3",
      "resource": {
        "id": "CSC-SNF-BIMS-1-Ob-Question-3",
        "meta": {
          "profile": [
            "http://hl7.org/fhir/us/pacio-cs/StructureDefinition/pacio-cs"
          ]
        },
        "text": {
          "status": "extensions",
          "div": "<div xmlns=\"http://www.w3.org/1999/xhtml\"><p><b>Generated Narrative</b></p><p><b>ObservationEventLocation</b>: <a href=\"Location-Org-Loc-02.html\">Generated Summary: status: active; name: Happy Nursing Facility</a></p><p></p><p><b>category</b>: <span title=\"Codes: {http://hl7.org/fhir/us/pacio-cs/CodeSystem/pacio-cat-cs functioning}\">Functioning</span>, <span title=\"Codes: {http://terminology.hl7.org/CodeSystem/observation-category survey}\">Survey</span></p><p><b>code</b>: <span title=\"Codes: {http://loinc.org 52731-7}\">Repetition of Three Words. Number of words repeated after first attempt</span></p><p><b>subject</b>: <a href=\"Patient-patientBSJ1.html\">Generated Summary: Betsy Smith-Johnson</a></p><p><b>effective</b>: Jul 11, 2020 4:30:00 PM</p><p><b>performer</b>: <a href=\"PractitionerRole-Role-SLP-HoneyJones.html\">Generated Summary: active: true; <span title=\"Codes: {http://snomed.info/sct 159026005}\">Speech and language therapist</span></a></p><p><b>value</b>: <span title=\"Codes: {http://loinc.org LA6404-3}\">Two</span></p><p><b>derivedFrom</b>: <a href=\"QuestionnaireResponse-QResponse-SNF-BIMS-1.html\">Generated Summary: questionnaire: http://example.org/Questionnaire/MDS3.0-NC-1.17; status: completed; authored: Jul 11, 2020 4:30:00 PM</a></p></div>"
        },
        "extension": [
          {
            "url": "http://hl7.org/fhir/us/pacio-cs/StructureDefinition/event-location",
            "valueReference": {
              "reference": "Location/Org-Loc-02"
            }
          }
        ],
        "status": "final",
        "category": [
          {
            "coding": [
              {
                "system": "http://hl7.org/fhir/us/pacio-cs/CodeSystem/pacio-cat-cs",
                "code": "functioning",
                "display": "Functioning"
              }
            ]
          },
          {
            "coding": [
              {
                "system": "http://terminology.hl7.org/CodeSystem/observation-category",
                "code": "survey"
              }
            ]
          }
        ],
        "code": {
          "coding": [
            {
              "system": "http://loinc.org",
              "code": "52731-7",
              "display": "Repetition of three words # [BIMS]"
            }
          ],
          "text": "Repetition of Three Words. Number of words repeated after first attempt"
        },
        "subject": {
          "reference": "Patient/patientBSJ1"
        },
        "effectiveDateTime": "2020-07-11T11:30:00-05:00",
        "performer": [
          {
            "reference": "PractitionerRole/Role-SLP-HoneyJones"
          }
        ],
        "valueCodeableConcept": {
          "coding": [
            {
              "system": "http://loinc.org",
              "code": "LA6404-3",
              "display": "Two"
            }
          ],
          "text": "Two"
        },
        "derivedFrom": [
          {
            "reference": "QuestionnaireResponse/QResponse-SNF-BIMS-1"
          }
        ],
        "resourceType": "Observation"
      },
      "request": {
        "method": "PUT",
        "url": "Observation/CSC-SNF-BIMS-1-Ob-Question-3"
      }
    },
    {
      "fullUrl": "Observation/CSC-SNF-PHQ9-1-Ob-Question-29",
      "resource": {
        "id": "CSC-SNF-PHQ9-1-Ob-Question-29",
        "meta": {
          "profile": [
            "http://hl7.org/fhir/us/pacio-cs/StructureDefinition/pacio-cs"
          ]
        },
        "text": {
          "status": "extensions",
          "div": "<div xmlns=\"http://www.w3.org/1999/xhtml\"><p><b>Generated Narrative</b></p><p><b>ObservationEventLocation</b>: <a href=\"Location-Org-Loc-03.html\">Generated Summary: status: active; name: Sky Harbor Home Health Services</a></p><p></p><p><b>category</b>: <span title=\"Codes: {http://hl7.org/fhir/us/pacio-cs/CodeSystem/pacio-cat-cs functioning}\">Functioning</span>, <span title=\"Codes: {http://terminology.hl7.org/CodeSystem/observation-category survey}\">Survey</span></p><p><b>code</b>: <span title=\"Codes: {http://loinc.org 54654-9}\">Total Severity Score</span></p><p><b>subject</b>: <a href=\"Patient-patientBSJ1.html\">Generated Summary: Betsy Smith-Johnson</a></p><p><b>effective</b>: Jul 11, 2020 4:30:00 PM</p><p><b>performer</b>: <a href=\"PractitionerRole-Role-SLP-LunaBaskins.html\">Generated Summary: active: true; <span title=\"Codes: {http://snomed.info/sct 159026005}\">Speech and language therapist</span></a></p><p><b>value</b>: 3 {score}</p><p><b>derivedFrom</b>: <a href=\"QuestionnaireResponse-QResponse-SNF-PHQ9-1.html\">Generated Summary: questionnaire: http://example.org/Questionnaire/MDS3.0-NC-1.17; status: completed; authored: Jul 11, 2020 4:30:00 PM</a></p></div>"
        },
        "extension": [
          {
            "url": "http://hl7.org/fhir/us/pacio-cs/StructureDefinition/event-location",
            "valueReference": {
              "reference": "Location/Org-Loc-03"
            }
          }
        ],
        "status": "final",
        "category": [
          {
            "coding": [
              {
                "system": "http://hl7.org/fhir/us/pacio-cs/CodeSystem/pacio-cat-cs",
                "code": "functioning",
                "display": "Functioning"
              }
            ]
          },
          {
            "coding": [
              {
                "system": "http://terminology.hl7.org/CodeSystem/observation-category",
                "code": "survey"
              }
            ]
          }
        ],
        "code": {
          "coding": [
            {
              "system": "http://loinc.org",
              "code": "54654-9",
              "display": "Mood interview total severity score [Reported PHQ-9 CMS]"
            }
          ],
          "text": "Total Severity Score"
        },
        "subject": {
          "reference": "Patient/patientBSJ1"
        },
        "effectiveDateTime": "2020-07-11T11:30:00-05:00",
        "performer": [
          {
            "reference": "PractitionerRole/Role-SLP-LunaBaskins"
          }
        ],
        "valueQuantity": {
          "value": 3,
          "system": "http://unitsofmeasure.org",
          "code": "{score}"
        },
        "derivedFrom": [
          {
            "reference": "QuestionnaireResponse/QResponse-SNF-PHQ9-1"
          }
        ],
        "resourceType": "Observation"
      },
      "request": {
        "method": "PUT",
        "url": "Observation/CSC-SNF-PHQ9-1-Ob-Question-29"
      }
    },
    {
      "fullUrl": "Observation/CSC-Hospital-MOCA-1-Ob-Question-1",
      "resource": {
        "id": "CSC-Hospital-MOCA-1-Ob-Question-1",
        "meta": {
          "profile": [
            "http://hl7.org/fhir/us/pacio-cs/StructureDefinition/pacio-cs"
          ]
        },
        "text": {
          "status": "extensions",
          "div": "<div xmlns=\"http://www.w3.org/1999/xhtml\"><p><b>Generated Narrative</b></p><p><b>ObservationEventLocation</b>: <a href=\"Location-Org-Loc-01.html\">Generated Summary: status: active; name: San Antonio General Hospital</a></p><p></p><p><b>category</b>: <span title=\"Codes: {http://hl7.org/fhir/us/pacio-cs/CodeSystem/pacio-cat-cs functioning}\">Functioning</span>, <span title=\"Codes: {http://terminology.hl7.org/CodeSystem/observation-category survey}\">Survey</span></p><p><b>code</b>: <span title=\"Codes: {http://loinc.org 72172-0}\">Total score [MoCA]</span></p><p><b>subject</b>: <a href=\"Patient-patientBSJ1.html\">Generated Summary: Betsy Smith-Johnson</a></p><p><b>effective</b>: Jul 8, 2020 10:32:00 PM</p><p><b>performer</b>: <a href=\"PractitionerRole-Role-SLP-JennyGlass.html\">Generated Summary: active: true; <span title=\"Codes: {http://snomed.info/sct 159026005}\">Speech and language therapist</span></a></p><p><b>value</b>: 18 {score}</p><p><b>derivedFrom</b>: <a href=\"QuestionnaireResponse-QResponse-Hospital-MOCA-1.html\">Generated Summary: questionnaire: http://example.org/Questionnaire/MDS3.0-NC-1.17; status: completed; authored: Jul 8, 2020 10:32:00 PM</a></p></div>"
        },
        "extension": [
          {
            "url": "http://hl7.org/fhir/us/pacio-cs/StructureDefinition/event-location",
            "valueReference": {
              "reference": "Location/Org-Loc-01"
            }
          }
        ],
        "status": "final",
        "category": [
          {
            "coding": [
              {
                "system": "http://hl7.org/fhir/us/pacio-cs/CodeSystem/pacio-cat-cs",
                "code": "functioning",
                "display": "Functioning"
              }
            ]
          },
          {
            "coding": [
              {
                "system": "http://terminology.hl7.org/CodeSystem/observation-category",
                "code": "survey"
              }
            ]
          }
        ],
        "code": {
          "coding": [
            {
              "system": "http://loinc.org",
              "code": "72172-0",
              "display": "Total score [MoCA]"
            }
          ]
        },
        "subject": {
          "reference": "Patient/patientBSJ1"
        },
        "effectiveDateTime": "2020-07-08T17:32:00-05:00",
        "performer": [
          {
            "reference": "PractitionerRole/Role-SLP-JennyGlass"
          }
        ],
        "valueQuantity": {
          "value": 18,
          "system": "http://unitsofmeasure.org",
          "code": "{score}"
        },
        "derivedFrom": [
          {
            "reference": "QuestionnaireResponse/QResponse-Hospital-MOCA-1"
          }
        ],
        "resourceType": "Observation"
      },
      "request": {
        "method": "PUT",
        "url": "Observation/CSC-Hospital-MOCA-1-Ob-Question-1"
      }
    },
    {
      "fullUrl": "Observation/CSC-SNF-PHQ9-1-Ob-Question-25",
      "resource": {
        "id": "CSC-SNF-PHQ9-1-Ob-Question-25",
        "meta": {
          "profile": [
            "http://hl7.org/fhir/us/pacio-cs/StructureDefinition/pacio-cs"
          ]
        },
        "text": {
          "status": "extensions",
          "div": "<div xmlns=\"http://www.w3.org/1999/xhtml\"><p><b>Generated Narrative</b></p><p><b>ObservationEventLocation</b>: <a href=\"Location-Org-Loc-03.html\">Generated Summary: status: active; name: Sky Harbor Home Health Services</a></p><p></p><p><b>category</b>: <span title=\"Codes: {http://hl7.org/fhir/us/pacio-cs/CodeSystem/pacio-cat-cs functioning}\">Functioning</span>, <span title=\"Codes: {http://terminology.hl7.org/CodeSystem/observation-category survey}\">Survey</span></p><p><b>code</b>: <span title=\"Codes: {http://loinc.org 54650-7}\">Moving or speaking so slowly that other people could have noticed. Or the opposite - being so fidgety or restless that you have been moving around a lot more than usual</span></p><p><b>subject</b>: <a href=\"Patient-patientBSJ1.html\">Generated Summary: Betsy Smith-Johnson</a></p><p><b>effective</b>: Jul 11, 2020 4:30:00 PM</p><p><b>performer</b>: <a href=\"PractitionerRole-Role-SLP-LunaBaskins.html\">Generated Summary: active: true; <span title=\"Codes: {http://snomed.info/sct 159026005}\">Speech and language therapist</span></a></p><p><b>value</b>: <span title=\"Codes: {http://loinc.org LA32-8}\">No</span></p><p><b>derivedFrom</b>: <a href=\"QuestionnaireResponse-QResponse-SNF-PHQ9-1.html\">Generated Summary: questionnaire: http://example.org/Questionnaire/MDS3.0-NC-1.17; status: completed; authored: Jul 11, 2020 4:30:00 PM</a></p></div>"
        },
        "extension": [
          {
            "url": "http://hl7.org/fhir/us/pacio-cs/StructureDefinition/event-location",
            "valueReference": {
              "reference": "Location/Org-Loc-03"
            }
          }
        ],
        "status": "final",
        "category": [
          {
            "coding": [
              {
                "system": "http://hl7.org/fhir/us/pacio-cs/CodeSystem/pacio-cat-cs",
                "code": "functioning",
                "display": "Functioning"
              }
            ]
          },
          {
            "coding": [
              {
                "system": "http://terminology.hl7.org/CodeSystem/observation-category",
                "code": "survey"
              }
            ]
          }
        ],
        "code": {
          "coding": [
            {
              "system": "http://loinc.org",
              "code": "54650-7",
              "display": "Moving or speaking so slowly that other people could have noticed. Or the opposite - being so fidgety or restless that you have been moving around a lot more than usual in last 2 weeks.presence [Reported PHQ-9 CMS]"
            }
          ],
          "text": "Moving or speaking so slowly that other people could have noticed. Or the opposite - being so fidgety or restless that you have been moving around a lot more than usual"
        },
        "subject": {
          "reference": "Patient/patientBSJ1"
        },
        "effectiveDateTime": "2020-07-11T11:30:00-05:00",
        "performer": [
          {
            "reference": "PractitionerRole/Role-SLP-LunaBaskins"
          }
        ],
        "valueCodeableConcept": {
          "coding": [
            {
              "system": "http://loinc.org",
              "code": "LA32-8",
              "display": "No"
            }
          ],
          "text": "No"
        },
        "derivedFrom": [
          {
            "reference": "QuestionnaireResponse/QResponse-SNF-PHQ9-1"
          }
        ],
        "resourceType": "Observation"
      },
      "request": {
        "method": "PUT",
        "url": "Observation/CSC-SNF-PHQ9-1-Ob-Question-25"
      }
    },
    {
      "fullUrl": "PractitionerRole/Role-SLP-LunaBaskins",
      "resource": {
        "id": "Role-SLP-LunaBaskins",
        "text": {
          "status": "generated",
          "div": "<div xmlns=\"http://www.w3.org/1999/xhtml\"><p><b>Generated Narrative</b></p><p><b>active</b>: true</p><p><b>practitioner</b>: <a href=\"Practitioner-Practitioner-LunaBaskins.html\">Generated Summary: active: true; Luna Baskins; gender: female</a></p><p><b>organization</b>: <a href=\"Organization-Org-03.html\">Generated Summary: name: Sky Harbor Home Health Services</a></p><p><b>code</b>: <span title=\"Codes: {http://snomed.info/sct 159026005}\">Speech and language therapist</span></p><p><b>location</b>: <a href=\"Location-Org-Loc-03.html\">Generated Summary: status: active; name: Sky Harbor Home Health Services</a></p></div>"
        },
        "active": true,
        "practitioner": {
          "reference": "Practitioner/Practitioner-LunaBaskins"
        },
        "organization": {
          "reference": "Organization/Org-03"
        },
        "code": [
          {
            "coding": [
              {
                "system": "http://snomed.info/sct",
                "code": "159026005",
                "display": "Speech and language therapist"
              }
            ]
          }
        ],
        "location": [
          {
            "reference": "Location/Org-Loc-03"
          }
        ],
        "resourceType": "PractitionerRole"
      },
      "request": {
        "method": "PUT",
        "url": "PractitionerRole/Role-SLP-LunaBaskins"
      }
    },
    {
      "fullUrl": "Observation/CSC-SNF-BIMS-1-Ob-Question-4",
      "resource": {
        "id": "CSC-SNF-BIMS-1-Ob-Question-4",
        "meta": {
          "profile": [
            "http://hl7.org/fhir/us/pacio-cs/StructureDefinition/pacio-cs"
          ]
        },
        "text": {
          "status": "extensions",
          "div": "<div xmlns=\"http://www.w3.org/1999/xhtml\"><p><b>Generated Narrative</b></p><p><b>ObservationEventLocation</b>: <a href=\"Location-Org-Loc-02.html\">Generated Summary: status: active; name: Happy Nursing Facility</a></p><p></p><p><b>category</b>: <span title=\"Codes: {http://hl7.org/fhir/us/pacio-cs/CodeSystem/pacio-cat-cs functioning}\">Functioning</span>, <span title=\"Codes: {http://terminology.hl7.org/CodeSystem/observation-category survey}\">Survey</span></p><p><b>code</b>: <span title=\"Codes: {http://loinc.org 52732-5}\">Able to report correct year</span></p><p><b>subject</b>: <a href=\"Patient-patientBSJ1.html\">Generated Summary: Betsy Smith-Johnson</a></p><p><b>effective</b>: Jul 11, 2020 4:30:00 PM</p><p><b>performer</b>: <a href=\"PractitionerRole-Role-SLP-HoneyJones.html\">Generated Summary: active: true; <span title=\"Codes: {http://snomed.info/sct 159026005}\">Speech and language therapist</span></a></p><p><b>value</b>: <span title=\"Codes: {http://loinc.org LA10008-3}\">Missed by 1 year</span></p><p><b>derivedFrom</b>: <a href=\"QuestionnaireResponse-QResponse-SNF-BIMS-1.html\">Generated Summary: questionnaire: http://example.org/Questionnaire/MDS3.0-NC-1.17; status: completed; authored: Jul 11, 2020 4:30:00 PM</a></p></div>"
        },
        "extension": [
          {
            "url": "http://hl7.org/fhir/us/pacio-cs/StructureDefinition/event-location",
            "valueReference": {
              "reference": "Location/Org-Loc-02"
            }
          }
        ],
        "status": "final",
        "category": [
          {
            "coding": [
              {
                "system": "http://hl7.org/fhir/us/pacio-cs/CodeSystem/pacio-cat-cs",
                "code": "functioning",
                "display": "Functioning"
              }
            ]
          },
          {
            "coding": [
              {
                "system": "http://terminology.hl7.org/CodeSystem/observation-category",
                "code": "survey"
              }
            ]
          }
        ],
        "code": {
          "coding": [
            {
              "system": "http://loinc.org",
              "code": "52732-5",
              "display": "Temporal orientation - current year [BIMS]"
            }
          ],
          "text": "Able to report correct year"
        },
        "subject": {
          "reference": "Patient/patientBSJ1"
        },
        "effectiveDateTime": "2020-07-11T11:30:00-05:00",
        "performer": [
          {
            "reference": "PractitionerRole/Role-SLP-HoneyJones"
          }
        ],
        "valueCodeableConcept": {
          "coding": [
            {
              "system": "http://loinc.org",
              "code": "LA10008-3",
              "display": "Missed by 1 year"
            }
          ],
          "text": "Missed by 1 year"
        },
        "derivedFrom": [
          {
            "reference": "QuestionnaireResponse/QResponse-SNF-BIMS-1"
          }
        ],
        "resourceType": "Observation"
      },
      "request": {
        "method": "PUT",
        "url": "Observation/CSC-SNF-BIMS-1-Ob-Question-4"
      }
    },
    {
      "fullUrl": "QuestionnaireResponse/QResponse-SNF-CAM-Admission-1",
      "resource": {
        "id": "QResponse-SNF-CAM-Admission-1",
        "meta": {
          "profile": [
            "http://hl7.org/fhir/uv/sdc/StructureDefinition/sdc-questionnaireresponse"
          ]
        },
        "text": {
          "status": "generated",
          "div": "<div xmlns=\"http://www.w3.org/1999/xhtml\"><p><b>Generated Narrative</b></p><p><b>questionnaire</b>: <a href=\"http://example.org/Questionnaire/MDS3.0-NC-1.17\">http://example.org/Questionnaire/MDS3.0-NC-1.17</a></p><p><b>status</b>: completed</p><p><b>subject</b>: <a href=\"Patient-patientBSJ1.html\">Generated Summary: Betsy Smith-Johnson</a></p><p><b>authored</b>: Apr 9, 2020 11:00:00 PM</p><blockquote><p><b>item</b></p><p><b>linkId</b>: Section-3</p><p><b>text</b>: Cognitive Patterns</p><blockquote><p><b>item</b></p><p><b>linkId</b>: Section-3/C1310</p><p><b>text</b>: Signs and Symptoms of Delirium (from CAM)</p></blockquote></blockquote></div>"
        },
        "questionnaire": "http://example.org/Questionnaire/MDS3.0-NC-1.17",
        "status": "completed",
        "subject": {
          "reference": "Patient/patientBSJ1"
        },
        "authored": "2020-04-09T18:00:00-05:00",
        "item": [
          {
            "linkId": "Section-3",
            "text": "Cognitive Patterns",
            "item": [
              {
                "linkId": "Section-3/C1310",
                "text": "Signs and Symptoms of Delirium (from CAM)",
                "item": [
                  {
                    "linkId": "Section-3/C1310A",
                    "text": "Is there evidence of an acute change in mental status from the patients baseline?",
                    "answer": [
                      {
                        "valueCoding": {
                          "system": "http://loinc.org",
                          "code": "LA32-8",
                          "display": "No"
                        }
                      }
                    ]
                  },
                  {
                    "linkId": "Section-3/C1310B",
                    "text": "Did the patient have difficulty focusing attention, for example being easily distractible, or having difficulty keeping track of what was being said?",
                    "answer": [
                      {
                        "valueCoding": {
                          "system": "http://loinc.org",
                          "code": "LA61-7",
                          "display": "Behavior not present"
                        }
                      }
                    ]
                  },
                  {
                    "linkId": "Section-3/C1310C",
                    "text": "Did the resident have altered level of consiousness as indicated by any of the following criteria: (1) Vigilant - startles easily to any sound or touch, (2) Lethargic - repeatedly dozed off when being asked questions, but responded to voice or touch, (3) Stuporous - very difficult to arouse and keep aroused for the interview, (4) Comatose - could not be aroused",
                    "answer": [
                      {
                        "valueCoding": {
                          "system": "http://loinc.org",
                          "code": "LA61-7",
                          "display": "Behavior not present"
                        }
                      }
                    ]
                  }
                ]
              }
            ]
          }
        ],
        "resourceType": "QuestionnaireResponse"
      },
      "request": {
        "method": "PUT",
        "url": "QuestionnaireResponse/QResponse-SNF-CAM-Admission-1"
      }
    },
    {
      "fullUrl": "Observation/CSC-SNF-PHQ9-1-Ob-Question-14",
      "resource": {
        "id": "CSC-SNF-PHQ9-1-Ob-Question-14",
        "meta": {
          "profile": [
            "http://hl7.org/fhir/us/pacio-cs/StructureDefinition/pacio-cs"
          ]
        },
        "text": {
          "status": "extensions",
          "div": "<div xmlns=\"http://www.w3.org/1999/xhtml\"><p><b>Generated Narrative</b></p><p><b>ObservationEventLocation</b>: <a href=\"Location-Org-Loc-03.html\">Generated Summary: status: active; name: Sky Harbor Home Health Services</a></p><p></p><p><b>category</b>: <span title=\"Codes: {http://hl7.org/fhir/us/pacio-cs/CodeSystem/pacio-cat-cs functioning}\">Functioning</span>, <span title=\"Codes: {http://terminology.hl7.org/CodeSystem/observation-category survey}\">Survey</span></p><p><b>code</b>: <span title=\"Codes: {http://loinc.org 54639-0}\">Feeling down</span></p><p><b>subject</b>: <a href=\"Patient-patientBSJ1.html\">Generated Summary: Betsy Smith-Johnson</a></p><p><b>effective</b>: Jul 11, 2020 4:30:00 PM</p><p><b>performer</b>: <a href=\"PractitionerRole-Role-SLP-LunaBaskins.html\">Generated Summary: active: true; <span title=\"Codes: {http://snomed.info/sct 159026005}\">Speech and language therapist</span></a></p><p><b>value</b>: <span title=\"Codes: {http://loinc.org LA10998-5}\">2-6 days (several days)</span></p><p><b>derivedFrom</b>: <a href=\"QuestionnaireResponse-QResponse-SNF-PHQ9-1.html\">Generated Summary: questionnaire: http://example.org/Questionnaire/MDS3.0-NC-1.17; status: completed; authored: Jul 11, 2020 4:30:00 PM</a></p></div>"
        },
        "extension": [
          {
            "url": "http://hl7.org/fhir/us/pacio-cs/StructureDefinition/event-location",
            "valueReference": {
              "reference": "Location/Org-Loc-03"
            }
          }
        ],
        "status": "final",
        "category": [
          {
            "coding": [
              {
                "system": "http://hl7.org/fhir/us/pacio-cs/CodeSystem/pacio-cat-cs",
                "code": "functioning",
                "display": "Functioning"
              }
            ]
          },
          {
            "coding": [
              {
                "system": "http://terminology.hl7.org/CodeSystem/observation-category",
                "code": "survey"
              }
            ]
          }
        ],
        "code": {
          "coding": [
            {
              "system": "http://loinc.org",
              "code": "54639-0",
              "display": "Feeling down, depressed or hopeless in last 2 weeks.frequency [Reported PHQ-9 CMS]"
            }
          ],
          "text": "Feeling down"
        },
        "subject": {
          "reference": "Patient/patientBSJ1"
        },
        "effectiveDateTime": "2020-07-11T11:30:00-05:00",
        "performer": [
          {
            "reference": "PractitionerRole/Role-SLP-LunaBaskins"
          }
        ],
        "valueCodeableConcept": {
          "coding": [
            {
              "system": "http://loinc.org",
              "code": "LA10998-5",
              "display": "2-6 days (several days)"
            }
          ],
          "text": "2-6 days (several days)"
        },
        "derivedFrom": [
          {
            "reference": "QuestionnaireResponse/QResponse-SNF-PHQ9-1"
          }
        ],
        "resourceType": "Observation"
      },
      "request": {
        "method": "PUT",
        "url": "Observation/CSC-SNF-PHQ9-1-Ob-Question-14"
      }
    },
    {
      "fullUrl": "Observation/CSC-SNF-BIMS-1-Ob-Question-8",
      "resource": {
        "id": "CSC-SNF-BIMS-1-Ob-Question-8",
        "meta": {
          "profile": [
            "http://hl7.org/fhir/us/pacio-cs/StructureDefinition/pacio-cs"
          ]
        },
        "text": {
          "status": "extensions",
          "div": "<div xmlns=\"http://www.w3.org/1999/xhtml\"><p><b>Generated Narrative</b></p><p><b>ObservationEventLocation</b>: <a href=\"Location-Org-Loc-02.html\">Generated Summary: status: active; name: Happy Nursing Facility</a></p><p></p><p><b>category</b>: <span title=\"Codes: {http://hl7.org/fhir/us/pacio-cs/CodeSystem/pacio-cat-cs functioning}\">Functioning</span>, <span title=\"Codes: {http://terminology.hl7.org/CodeSystem/observation-category survey}\">Survey</span></p><p><b>code</b>: <span title=\"Codes: {http://loinc.org 52736-6}\">Able to recall \"blue\"</span></p><p><b>subject</b>: <a href=\"Patient-patientBSJ1.html\">Generated Summary: Betsy Smith-Johnson</a></p><p><b>effective</b>: Jul 11, 2020 4:30:00 PM</p><p><b>performer</b>: <a href=\"PractitionerRole-Role-SLP-HoneyJones.html\">Generated Summary: active: true; <span title=\"Codes: {http://snomed.info/sct 159026005}\">Speech and language therapist</span></a></p><p><b>value</b>: <span title=\"Codes: {http://loinc.org LA10978-7}\">Yes, after cueing (\"a color\")</span></p><p><b>derivedFrom</b>: <a href=\"QuestionnaireResponse-QResponse-SNF-BIMS-1.html\">Generated Summary: questionnaire: http://example.org/Questionnaire/MDS3.0-NC-1.17; status: completed; authored: Jul 11, 2020 4:30:00 PM</a></p></div>"
        },
        "extension": [
          {
            "url": "http://hl7.org/fhir/us/pacio-cs/StructureDefinition/event-location",
            "valueReference": {
              "reference": "Location/Org-Loc-02"
            }
          }
        ],
        "status": "final",
        "category": [
          {
            "coding": [
              {
                "system": "http://hl7.org/fhir/us/pacio-cs/CodeSystem/pacio-cat-cs",
                "code": "functioning",
                "display": "Functioning"
              }
            ]
          },
          {
            "coding": [
              {
                "system": "http://terminology.hl7.org/CodeSystem/observation-category",
                "code": "survey"
              }
            ]
          }
        ],
        "code": {
          "coding": [
            {
              "system": "http://loinc.org",
              "code": "52736-6",
              "display": "Recall - blue [BIMS]"
            }
          ],
          "text": "Able to recall \"blue\""
        },
        "subject": {
          "reference": "Patient/patientBSJ1"
        },
        "effectiveDateTime": "2020-07-11T11:30:00-05:00",
        "performer": [
          {
            "reference": "PractitionerRole/Role-SLP-HoneyJones"
          }
        ],
        "valueCodeableConcept": {
          "coding": [
            {
              "system": "http://loinc.org",
              "code": "LA10978-7",
              "display": "Yes, after cueing (\"a color\")"
            }
          ],
          "text": "Yes, after cueing (\"a color\")"
        },
        "derivedFrom": [
          {
            "reference": "QuestionnaireResponse/QResponse-SNF-BIMS-1"
          }
        ],
        "resourceType": "Observation"
      },
      "request": {
        "method": "PUT",
        "url": "Observation/CSC-SNF-BIMS-1-Ob-Question-8"
      }
    },
    {
      "fullUrl": "Observation/CSC-SNF-PHQ9-1-Ob-Question-22",
      "resource": {
        "id": "CSC-SNF-PHQ9-1-Ob-Question-22",
        "meta": {
          "profile": [
            "http://hl7.org/fhir/us/pacio-cs/StructureDefinition/pacio-cs"
          ]
        },
        "text": {
          "status": "extensions",
          "div": "<div xmlns=\"http://www.w3.org/1999/xhtml\"><p><b>Generated Narrative</b></p><p><b>ObservationEventLocation</b>: <a href=\"Location-Org-Loc-03.html\">Generated Summary: status: active; name: Sky Harbor Home Health Services</a></p><p></p><p><b>category</b>: <span title=\"Codes: {http://hl7.org/fhir/us/pacio-cs/CodeSystem/pacio-cat-cs functioning}\">Functioning</span>, <span title=\"Codes: {http://terminology.hl7.org/CodeSystem/observation-category survey}\">Survey</span></p><p><b>code</b>: <span title=\"Codes: {http://loinc.org 54647-3}\">Feeling bad about yourself - or that you are a failure or have let yourself or your family down</span></p><p><b>subject</b>: <a href=\"Patient-patientBSJ1.html\">Generated Summary: Betsy Smith-Johnson</a></p><p><b>effective</b>: Jul 11, 2020 4:30:00 PM</p><p><b>performer</b>: <a href=\"PractitionerRole-Role-SLP-LunaBaskins.html\">Generated Summary: active: true; <span title=\"Codes: {http://snomed.info/sct 159026005}\">Speech and language therapist</span></a></p><p><b>value</b>: <span title=\"Codes: {http://loinc.org LA10997-7}\">Never or 1 day</span></p><p><b>derivedFrom</b>: <a href=\"QuestionnaireResponse-QResponse-SNF-PHQ9-1.html\">Generated Summary: questionnaire: http://example.org/Questionnaire/MDS3.0-NC-1.17; status: completed; authored: Jul 11, 2020 4:30:00 PM</a></p></div>"
        },
        "extension": [
          {
            "url": "http://hl7.org/fhir/us/pacio-cs/StructureDefinition/event-location",
            "valueReference": {
              "reference": "Location/Org-Loc-03"
            }
          }
        ],
        "status": "final",
        "category": [
          {
            "coding": [
              {
                "system": "http://hl7.org/fhir/us/pacio-cs/CodeSystem/pacio-cat-cs",
                "code": "functioning",
                "display": "Functioning"
              }
            ]
          },
          {
            "coding": [
              {
                "system": "http://terminology.hl7.org/CodeSystem/observation-category",
                "code": "survey"
              }
            ]
          }
        ],
        "code": {
          "coding": [
            {
              "system": "http://loinc.org",
              "code": "54647-3",
              "display": "Feeling bad about yourself - or that you are a failure or have let yourself or your family down in last 2 weeks.frequency [Reported PHQ-9 CMS]"
            }
          ],
          "text": "Feeling bad about yourself - or that you are a failure or have let yourself or your family down"
        },
        "subject": {
          "reference": "Patient/patientBSJ1"
        },
        "effectiveDateTime": "2020-07-11T11:30:00-05:00",
        "performer": [
          {
            "reference": "PractitionerRole/Role-SLP-LunaBaskins"
          }
        ],
        "valueCodeableConcept": {
          "coding": [
            {
              "system": "http://loinc.org",
              "code": "LA10997-7",
              "display": "Never or 1 day"
            }
          ],
          "text": "Never or 1 day"
        },
        "derivedFrom": [
          {
            "reference": "QuestionnaireResponse/QResponse-SNF-PHQ9-1"
          }
        ],
        "resourceType": "Observation"
      },
      "request": {
        "method": "PUT",
        "url": "Observation/CSC-SNF-PHQ9-1-Ob-Question-22"
      }
    },
    {
      "fullUrl": "QuestionnaireResponse/QResponse-Hospital-MOCA-1",
      "resource": {
        "id": "QResponse-Hospital-MOCA-1",
        "meta": {
          "profile": [
            "http://hl7.org/fhir/uv/sdc/StructureDefinition/sdc-questionnaireresponse"
          ]
        },
        "text": {
          "status": "generated",
          "div": "<div xmlns=\"http://www.w3.org/1999/xhtml\"><p><b>Generated Narrative</b></p><p><b>questionnaire</b>: <a href=\"http://example.org/Questionnaire/MDS3.0-NC-1.17\">http://example.org/Questionnaire/MDS3.0-NC-1.17</a></p><p><b>status</b>: completed</p><p><b>subject</b>: <a href=\"Patient-patientBSJ1.html\">Generated Summary: Betsy Smith-Johnson</a></p><p><b>authored</b>: Jul 8, 2020 10:32:00 PM</p><p><b>author</b>: <a href=\"PractitionerRole-Role-SLP-JennyGlass.html\">Generated Summary: active: true; <span title=\"Codes: {http://snomed.info/sct 159026005}\">Speech and language therapist</span></a></p><blockquote><p><b>item</b></p><p><b>linkId</b>: MoCA</p><p><b>text</b>: Montreal Cognitive Assessment [MoCA]</p><blockquote><p><b>item</b></p><p><b>linkId</b>: MoCA/TotalScore</p><p><b>text</b>: Total score [MoCA]</p></blockquote></blockquote></div>"
        },
        "questionnaire": "http://example.org/Questionnaire/MDS3.0-NC-1.17",
        "status": "completed",
        "subject": {
          "reference": "Patient/patientBSJ1"
        },
        "authored": "2020-07-08T17:32:00-05:00",
        "author": {
          "reference": "PractitionerRole/Role-SLP-JennyGlass"
        },
        "item": [
          {
            "linkId": "MoCA",
            "text": "Montreal Cognitive Assessment [MoCA]",
            "item": [
              {
                "linkId": "MoCA/TotalScore",
                "text": "Total score [MoCA]",
                "answer": [
                  {
                    "valueQuantity": {
                      "value": 18,
                      "system": "http://unitsofmeasure.org",
                      "code": "{score}"
                    }
                  }
                ]
              }
            ]
          }
        ],
        "resourceType": "QuestionnaireResponse"
      },
      "request": {
        "method": "PUT",
        "url": "QuestionnaireResponse/QResponse-Hospital-MOCA-1"
      }
    },
    {
      "fullUrl": "Observation/CSC-SNF-PHQ9-1-Ob-Question-18",
      "resource": {
        "id": "CSC-SNF-PHQ9-1-Ob-Question-18",
        "meta": {
          "profile": [
            "http://hl7.org/fhir/us/pacio-cs/StructureDefinition/pacio-cs"
          ]
        },
        "text": {
          "status": "extensions",
          "div": "<div xmlns=\"http://www.w3.org/1999/xhtml\"><p><b>Generated Narrative</b></p><p><b>ObservationEventLocation</b>: <a href=\"Location-Org-Loc-03.html\">Generated Summary: status: active; name: Sky Harbor Home Health Services</a></p><p></p><p><b>category</b>: <span title=\"Codes: {http://hl7.org/fhir/us/pacio-cs/CodeSystem/pacio-cat-cs functioning}\">Functioning</span>, <span title=\"Codes: {http://terminology.hl7.org/CodeSystem/observation-category survey}\">Survey</span></p><p><b>code</b>: <span title=\"Codes: {http://loinc.org 54643-2}\">Feeling tired or having little energy</span></p><p><b>subject</b>: <a href=\"Patient-patientBSJ1.html\">Generated Summary: Betsy Smith-Johnson</a></p><p><b>effective</b>: Jul 11, 2020 4:30:00 PM</p><p><b>performer</b>: <a href=\"PractitionerRole-Role-SLP-LunaBaskins.html\">Generated Summary: active: true; <span title=\"Codes: {http://snomed.info/sct 159026005}\">Speech and language therapist</span></a></p><p><b>value</b>: <span title=\"Codes: {http://loinc.org LA10997-7}\">Never or 1 day</span></p><p><b>derivedFrom</b>: <a href=\"QuestionnaireResponse-QResponse-SNF-PHQ9-1.html\">Generated Summary: questionnaire: http://example.org/Questionnaire/MDS3.0-NC-1.17; status: completed; authored: Jul 11, 2020 4:30:00 PM</a></p></div>"
        },
        "extension": [
          {
            "url": "http://hl7.org/fhir/us/pacio-cs/StructureDefinition/event-location",
            "valueReference": {
              "reference": "Location/Org-Loc-03"
            }
          }
        ],
        "status": "final",
        "category": [
          {
            "coding": [
              {
                "system": "http://hl7.org/fhir/us/pacio-cs/CodeSystem/pacio-cat-cs",
                "code": "functioning",
                "display": "Functioning"
              }
            ]
          },
          {
            "coding": [
              {
                "system": "http://terminology.hl7.org/CodeSystem/observation-category",
                "code": "survey"
              }
            ]
          }
        ],
        "code": {
          "coding": [
            {
              "system": "http://loinc.org",
              "code": "54643-2",
              "display": "Feeling tired or having little energy in last 2 weeks.frequency [Reported PHQ-9 CMS]"
            }
          ],
          "text": "Feeling tired or having little energy"
        },
        "subject": {
          "reference": "Patient/patientBSJ1"
        },
        "effectiveDateTime": "2020-07-11T11:30:00-05:00",
        "performer": [
          {
            "reference": "PractitionerRole/Role-SLP-LunaBaskins"
          }
        ],
        "valueCodeableConcept": {
          "coding": [
            {
              "system": "http://loinc.org",
              "code": "LA10997-7",
              "display": "Never or 1 day"
            }
          ],
          "text": "Never or 1 day"
        },
        "derivedFrom": [
          {
            "reference": "QuestionnaireResponse/QResponse-SNF-PHQ9-1"
          }
        ],
        "resourceType": "Observation"
      },
      "request": {
        "method": "PUT",
        "url": "Observation/CSC-SNF-PHQ9-1-Ob-Question-18"
      }
    },
    {
      "fullUrl": "Device/CMS-Device-Eyeglasses",
      "resource": {
        "id": "CMS-Device-Eyeglasses",
        "text": {
          "status": "generated",
          "div": "<div xmlns=\"http://www.w3.org/1999/xhtml\"><p><b>Generated Narrative</b></p><h3>DeviceNames</h3><table class=\"grid\"><tr><td>-</td><td><b>Name</b></td><td><b>Type</b></td></tr><tr><td>*</td><td>Eyeglasses</td><td>user-friendly-name</td></tr></table><p><b>type</b>: <span title=\"Codes: {http://snomed.info/sct 50121007}\">Eye glasses, device (physical object)</span></p></div>"
        },
        "deviceName": [
          {
            "name": "Eyeglasses",
            "type": "user-friendly-name"
          }
        ],
        "type": {
          "coding": [
            {
              "system": "http://snomed.info/sct",
              "code": "50121007"
            }
          ]
        },
        "resourceType": "Device"
      },
      "request": {
        "method": "PUT",
        "url": "Device/CMS-Device-Eyeglasses"
      }
    },
    {
      "fullUrl": "Observation/CSC-Hospital-MOCA-1",
      "resource": {
        "id": "CSC-Hospital-MOCA-1",
        "meta": {
          "profile": [
            "http://hl7.org/fhir/us/pacio-cs/StructureDefinition/pacio-csc"
          ]
        },
        "text": {
          "status": "extensions",
          "div": "<div xmlns=\"http://www.w3.org/1999/xhtml\"><p><b>Generated Narrative</b></p><p><b>ObservationEventLocation</b>: <a href=\"Location-Org-Loc-01.html\">Generated Summary: status: active; name: San Antonio General Hospital</a></p><p></p><p><b>category</b>: <span title=\"Codes: {http://hl7.org/fhir/us/pacio-cs/CodeSystem/pacio-cat-cs functioning}\">Functioning</span>, <span title=\"Codes: {http://terminology.hl7.org/CodeSystem/observation-category survey}\">Survey</span></p><p><b>code</b>: <span title=\"Codes: {http://loinc.org 72133-2}\">Montreal Cognitive Assessment [MoCA]</span></p><p><b>subject</b>: <a href=\"Patient-patientBSJ1.html\">Generated Summary: Betsy Smith-Johnson</a></p><p><b>effective</b>: Jul 8, 2020 10:32:00 PM</p><p><b>performer</b>: <a href=\"PractitionerRole-Role-SLP-JennyGlass.html\">Generated Summary: active: true; <span title=\"Codes: {http://snomed.info/sct 159026005}\">Speech and language therapist</span></a></p><p><b>hasMember</b>: <a href=\"Observation-CSC-Hospital-MOCA-1-Ob-Question-1.html\">Generated Summary: <span title=\"Codes: {http://hl7.org/fhir/us/pacio-cs/CodeSystem/pacio-cat-cs functioning}\">Functioning</span>, <span title=\"Codes: {http://terminology.hl7.org/CodeSystem/observation-category survey}\">Survey</span>; <span title=\"Codes: {http://loinc.org 72172-0}\">Total score [MoCA]</span>; effective: Jul 8, 2020 10:32:00 PM; 18 {score}</a></p><p><b>derivedFrom</b>: <a href=\"QuestionnaireResponse-QResponse-Hospital-MOCA-1.html\">Generated Summary: questionnaire: http://example.org/Questionnaire/MDS3.0-NC-1.17; status: completed; authored: Jul 8, 2020 10:32:00 PM</a></p></div>"
        },
        "extension": [
          {
            "url": "http://hl7.org/fhir/us/pacio-cs/StructureDefinition/event-location",
            "valueReference": {
              "reference": "Location/Org-Loc-01"
            }
          }
        ],
        "status": "final",
        "category": [
          {
            "coding": [
              {
                "system": "http://hl7.org/fhir/us/pacio-cs/CodeSystem/pacio-cat-cs",
                "code": "functioning",
                "display": "Functioning"
              }
            ]
          },
          {
            "coding": [
              {
                "system": "http://terminology.hl7.org/CodeSystem/observation-category",
                "code": "survey",
                "display": "Survey"
              }
            ]
          }
        ],
        "code": {
          "coding": [
            {
              "system": "http://loinc.org",
              "code": "72133-2",
              "display": "Montreal Cognitive Assessment [MoCA]"
            }
          ]
        },
        "subject": {
          "reference": "Patient/patientBSJ1"
        },
        "effectiveDateTime": "2020-07-08T17:32:00-05:00",
        "performer": [
          {
            "reference": "PractitionerRole/Role-SLP-JennyGlass"
          }
        ],
        "hasMember": [
          {
            "reference": "Observation/CSC-Hospital-MOCA-1-Ob-Question-1"
          }
        ],
        "derivedFrom": [
          {
            "reference": "QuestionnaireResponse/QResponse-Hospital-MOCA-1"
          }
        ],
        "resourceType": "Observation"
      },
      "request": {
        "method": "PUT",
        "url": "Observation/CSC-Hospital-MOCA-1"
      }
    },
    {
      "fullUrl": "Observation/CSC-SNF-CAM-Admission-1-Ob-Question-3",
      "resource": {
        "id": "CSC-SNF-CAM-Admission-1-Ob-Question-3",
        "meta": {
          "profile": [
            "http://hl7.org/fhir/us/pacio-cs/StructureDefinition/pacio-cs"
          ]
        },
        "text": {
          "status": "extensions",
          "div": "<div xmlns=\"http://www.w3.org/1999/xhtml\"><p><b>Generated Narrative</b></p><p><b>ObservationEventLocation</b>: <a href=\"Location-Org-Loc-02.html\">Generated Summary: status: active; name: Happy Nursing Facility</a></p><p></p><p><b>category</b>: <span title=\"Codes: {http://hl7.org/fhir/us/pacio-cs/CodeSystem/pacio-cat-cs functioning}\">Functioning</span>, <span title=\"Codes: {http://terminology.hl7.org/CodeSystem/observation-category survey}\">Survey</span></p><p><b>code</b>: <span title=\"Codes: {http://loinc.org 54628-3}\">Inattention - Did the resident have difficulty focusing attention, for example, being easily distractible or having difficulty keeping track of what was being said?</span></p><p><b>subject</b>: <a href=\"Patient-patientBSJ1.html\">Generated Summary: Betsy Smith-Johnson</a></p><p><b>effective</b>: Apr 9, 2020 11:00:00 PM</p><p><b>performer</b>: <a href=\"PractitionerRole-Role-SLP-HoneyJones.html\">Generated Summary: active: true; <span title=\"Codes: {http://snomed.info/sct 159026005}\">Speech and language therapist</span></a></p><p><b>value</b>: <span title=\"Codes: {http://loinc.org LA61-7}\">Behavior not present</span></p><p><b>derivedFrom</b>: <a href=\"QuestionnaireResponse-QResponse-SNF-CAM-Admission-1.html\">Generated Summary: questionnaire: http://example.org/Questionnaire/MDS3.0-NC-1.17; status: completed; authored: Apr 9, 2020 11:00:00 PM</a></p></div>"
        },
        "extension": [
          {
            "url": "http://hl7.org/fhir/us/pacio-cs/StructureDefinition/event-location",
            "valueReference": {
              "reference": "Location/Org-Loc-02"
            }
          }
        ],
        "status": "final",
        "category": [
          {
            "coding": [
              {
                "system": "http://hl7.org/fhir/us/pacio-cs/CodeSystem/pacio-cat-cs",
                "code": "functioning",
                "display": "Functioning"
              }
            ]
          },
          {
            "coding": [
              {
                "system": "http://terminology.hl7.org/CodeSystem/observation-category",
                "code": "survey",
                "display": "Survey"
              }
            ]
          }
        ],
        "code": {
          "coding": [
            {
              "system": "http://loinc.org",
              "code": "54628-3",
              "display": "Inattention in last 7 days [CAM.CMS]"
            }
          ],
          "text": "Inattention - Did the resident have difficulty focusing attention, for example, being easily distractible or having difficulty keeping track of what was being said?"
        },
        "subject": {
          "reference": "Patient/patientBSJ1"
        },
        "effectiveDateTime": "2020-04-09T18:00:00-05:00",
        "performer": [
          {
            "reference": "PractitionerRole/Role-SLP-HoneyJones"
          }
        ],
        "valueCodeableConcept": {
          "coding": [
            {
              "system": "http://loinc.org",
              "code": "LA61-7",
              "display": "Behavior not present"
            }
          ],
          "text": "Behavior not present"
        },
        "derivedFrom": [
          {
            "reference": "QuestionnaireResponse/QResponse-SNF-CAM-Admission-1"
          }
        ],
        "resourceType": "Observation"
      },
      "request": {
        "method": "PUT",
        "url": "Observation/CSC-SNF-CAM-Admission-1-Ob-Question-3"
      }
    },
    {
      "fullUrl": "Observation/CSC-SNF-BIMS-1",
      "resource": {
        "id": "CSC-SNF-BIMS-1",
        "meta": {
          "profile": [
            "http://hl7.org/fhir/us/pacio-cs/StructureDefinition/pacio-csc"
          ]
        },
        "text": {
          "status": "extensions",
          "div": "<div xmlns=\"http://www.w3.org/1999/xhtml\"><p><b>Generated Narrative</b></p><p><b>ObservationEventLocation</b>: <a href=\"Location-Org-Loc-02.html\">Generated Summary: status: active; name: Happy Nursing Facility</a></p><p><b>DevicePatientUsed</b>: <a href=\"DeviceUseStatement-CSC-SNF-BIMS-1-UseOfDevice-1.html\">Generated Summary: status: active; recordedOn: Jul 11, 2020 4:30:00 PM</a></p><p><b>DevicePatientUsed</b>: <a href=\"DeviceUseStatement-CSC-SNF-BIMS-1-UseOfDevice-2.html\">Generated Summary: status: active; recordedOn: Jul 11, 2020 4:30:00 PM</a></p><p></p><p><b>category</b>: <span title=\"Codes: {http://hl7.org/fhir/us/pacio-cs/CodeSystem/pacio-cat-cs functioning}\">Functioning</span>, <span title=\"Codes: {http://terminology.hl7.org/CodeSystem/observation-category survey}\">Survey</span></p><p><b>code</b>: <span title=\"Codes: {http://loinc.org 52491-8}\">Brief interview for mental status [BIMS]</span></p><p><b>subject</b>: <a href=\"Patient-patientBSJ1.html\">Generated Summary: Betsy Smith-Johnson</a></p><p><b>effective</b>: Jul 11, 2020 4:30:00 PM</p><p><b>performer</b>: <a href=\"PractitionerRole-Role-SLP-HoneyJones.html\">Generated Summary: active: true; <span title=\"Codes: {http://snomed.info/sct 159026005}\">Speech and language therapist</span></a></p><p><b>hasMember</b>: </p><ul><li><a href=\"Observation-CSC-SNF-BIMS-1-Ob-Question-3.html\">Generated Summary: <span title=\"Codes: {http://hl7.org/fhir/us/pacio-cs/CodeSystem/pacio-cat-cs functioning}\">Functioning</span>, <span title=\"Codes: {http://terminology.hl7.org/CodeSystem/observation-category survey}\">Survey</span>; <span title=\"Codes: {http://loinc.org 52731-7}\">Repetition of Three Words. Number of words repeated after first attempt</span>; effective: Jul 11, 2020 4:30:00 PM; <span title=\"Codes: {http://loinc.org LA6404-3}\">Two</span></a></li><li><a href=\"Observation-CSC-SNF-BIMS-1-Ob-Question-4.html\">Generated Summary: <span title=\"Codes: {http://hl7.org/fhir/us/pacio-cs/CodeSystem/pacio-cat-cs functioning}\">Functioning</span>, <span title=\"Codes: {http://terminology.hl7.org/CodeSystem/observation-category survey}\">Survey</span>; <span title=\"Codes: {http://loinc.org 52732-5}\">Able to report correct year</span>; effective: Jul 11, 2020 4:30:00 PM; <span title=\"Codes: {http://loinc.org LA10008-3}\">Missed by 1 year</span></a></li><li><a href=\"Observation-CSC-SNF-BIMS-1-Ob-Question-5.html\">Generated Summary: <span title=\"Codes: {http://hl7.org/fhir/us/pacio-cs/CodeSystem/pacio-cat-cs functioning}\">Functioning</span>, <span title=\"Codes: {http://terminology.hl7.org/CodeSystem/observation-category survey}\">Survey</span>; <span title=\"Codes: {http://loinc.org 52733-3}\">Able to report correct month</span>; effective: Jul 11, 2020 4:30:00 PM; <span title=\"Codes: {http://loinc.org LA10010-9}\">Missed by 6 days to 1 month</span></a></li><li><a href=\"Observation-CSC-SNF-BIMS-1-Ob-Question-6.html\">Generated Summary: <span title=\"Codes: {http://hl7.org/fhir/us/pacio-cs/CodeSystem/pacio-cat-cs functioning}\">Functioning</span>, <span title=\"Codes: {http://terminology.hl7.org/CodeSystem/observation-category survey}\">Survey</span>; <span title=\"Codes: {http://loinc.org 54609-3}\">Able to report correct day of the week</span>; effective: Jul 11, 2020 4:30:00 PM; <span title=\"Codes: {http://loinc.org LA9960-1}\">Correct</span></a></li><li><a href=\"Observation-CSC-SNF-BIMS-1-Ob-Question-7.html\">Generated Summary: <span title=\"Codes: {http://hl7.org/fhir/us/pacio-cs/CodeSystem/pacio-cat-cs functioning}\">Functioning</span>, <span title=\"Codes: {http://terminology.hl7.org/CodeSystem/observation-category survey}\">Survey</span>; <span title=\"Codes: {http://loinc.org 52735-8}\">Able to recall \"sock\"</span>; effective: Jul 11, 2020 4:30:00 PM; <span title=\"Codes: {http://loinc.org LA10126-3}\">Yes, after cueing (\"something to wear\")</span></a></li><li><a href=\"Observation-CSC-SNF-BIMS-1-Ob-Question-8.html\">Generated Summary: <span title=\"Codes: {http://hl7.org/fhir/us/pacio-cs/CodeSystem/pacio-cat-cs functioning}\">Functioning</span>, <span title=\"Codes: {http://terminology.hl7.org/CodeSystem/observation-category survey}\">Survey</span>; <span title=\"Codes: {http://loinc.org 52736-6}\">Able to recall \"blue\"</span>; effective: Jul 11, 2020 4:30:00 PM; <span title=\"Codes: {http://loinc.org LA10978-7}\">Yes, after cueing (\"a color\")</span></a></li><li><a href=\"Observation-CSC-SNF-BIMS-1-Ob-Question-9.html\">Generated Summary: <span title=\"Codes: {http://hl7.org/fhir/us/pacio-cs/CodeSystem/pacio-cat-cs functioning}\">Functioning</span>, <span title=\"Codes: {http://terminology.hl7.org/CodeSystem/observation-category survey}\">Survey</span>; <span title=\"Codes: {http://loinc.org 52737-4}\">Able to recall \"bed\"</span>; effective: Jul 11, 2020 4:30:00 PM; <span title=\"Codes: {http://loinc.org LA10125-5}\">Yes, after cueing (\"a piece of furniture\")</span></a></li><li><a href=\"Observation-CSC-SNF-BIMS-1-Ob-Question-10.html\">Generated Summary: <span title=\"Codes: {http://hl7.org/fhir/us/pacio-cs/CodeSystem/pacio-cat-cs functioning}\">Functioning</span>, <span title=\"Codes: {http://terminology.hl7.org/CodeSystem/observation-category survey}\">Survey</span>; <span title=\"Codes: {http://loinc.org 54614-3}\">BIMS Summary Score\t\t\t{score}</span>; effective: Jul 11, 2020 4:30:00 PM; 9 {score}</a></li></ul><p><b>derivedFrom</b>: <a href=\"QuestionnaireResponse-QResponse-SNF-BIMS-1.html\">Generated Summary: questionnaire: http://example.org/Questionnaire/MDS3.0-NC-1.17; status: completed; authored: Jul 11, 2020 4:30:00 PM</a></p></div>"
        },
        "extension": [
          {
            "url": "http://hl7.org/fhir/us/pacio-cs/StructureDefinition/event-location",
            "valueReference": {
              "reference": "Location/Org-Loc-02"
            }
          },
          {
            "url": "http://hl7.org/fhir/us/pacio-cs/StructureDefinition/device-patient-used",
            "valueReference": {
              "reference": "DeviceUseStatement/CSC-SNF-BIMS-1-UseOfDevice-1"
            }
          },
          {
            "url": "http://hl7.org/fhir/us/pacio-cs/StructureDefinition/device-patient-used",
            "valueReference": {
              "reference": "DeviceUseStatement/CSC-SNF-BIMS-1-UseOfDevice-2"
            }
          }
        ],
        "status": "final",
        "category": [
          {
            "coding": [
              {
                "system": "http://hl7.org/fhir/us/pacio-cs/CodeSystem/pacio-cat-cs",
                "code": "functioning",
                "display": "Functioning"
              }
            ]
          },
          {
            "coding": [
              {
                "system": "http://terminology.hl7.org/CodeSystem/observation-category",
                "code": "survey",
                "display": "Survey"
              }
            ]
          }
        ],
        "code": {
          "coding": [
            {
              "system": "http://loinc.org",
              "code": "52491-8",
              "display": "Brief interview for mental status [BIMS]"
            }
          ]
        },
        "subject": {
          "reference": "Patient/patientBSJ1"
        },
        "effectiveDateTime": "2020-07-11T11:30:00-05:00",
        "performer": [
          {
            "reference": "PractitionerRole/Role-SLP-HoneyJones"
          }
        ],
        "hasMember": [
          {
            "reference": "Observation/CSC-SNF-BIMS-1-Ob-Question-3"
          },
          {
            "reference": "Observation/CSC-SNF-BIMS-1-Ob-Question-4"
          },
          {
            "reference": "Observation/CSC-SNF-BIMS-1-Ob-Question-5"
          },
          {
            "reference": "Observation/CSC-SNF-BIMS-1-Ob-Question-6"
          },
          {
            "reference": "Observation/CSC-SNF-BIMS-1-Ob-Question-7"
          },
          {
            "reference": "Observation/CSC-SNF-BIMS-1-Ob-Question-8"
          },
          {
            "reference": "Observation/CSC-SNF-BIMS-1-Ob-Question-9"
          },
          {
            "reference": "Observation/CSC-SNF-BIMS-1-Ob-Question-10"
          }
        ],
        "derivedFrom": [
          {
            "reference": "QuestionnaireResponse/QResponse-SNF-BIMS-1"
          }
        ],
        "resourceType": "Observation"
      },
      "request": {
        "method": "PUT",
        "url": "Observation/CSC-SNF-BIMS-1"
      }
    },
    {
      "fullUrl": "Observation/CSC-SNF-PHQ9-1-Ob-Question-19",
      "resource": {
        "id": "CSC-SNF-PHQ9-1-Ob-Question-19",
        "meta": {
          "profile": [
            "http://hl7.org/fhir/us/pacio-cs/StructureDefinition/pacio-cs"
          ]
        },
        "text": {
          "status": "extensions",
          "div": "<div xmlns=\"http://www.w3.org/1999/xhtml\"><p><b>Generated Narrative</b></p><p><b>ObservationEventLocation</b>: <a href=\"Location-Org-Loc-03.html\">Generated Summary: status: active; name: Sky Harbor Home Health Services</a></p><p></p><p><b>category</b>: <span title=\"Codes: {http://hl7.org/fhir/us/pacio-cs/CodeSystem/pacio-cat-cs functioning}\">Functioning</span>, <span title=\"Codes: {http://terminology.hl7.org/CodeSystem/observation-category survey}\">Survey</span></p><p><b>code</b>: <span title=\"Codes: {http://loinc.org 54644-0}\">Poor appetite or overeating</span></p><p><b>subject</b>: <a href=\"Patient-patientBSJ1.html\">Generated Summary: Betsy Smith-Johnson</a></p><p><b>effective</b>: Jul 11, 2020 4:30:00 PM</p><p><b>performer</b>: <a href=\"PractitionerRole-Role-SLP-LunaBaskins.html\">Generated Summary: active: true; <span title=\"Codes: {http://snomed.info/sct 159026005}\">Speech and language therapist</span></a></p><p><b>value</b>: <span title=\"Codes: {http://loinc.org LA32-8}\">No</span></p><p><b>derivedFrom</b>: <a href=\"QuestionnaireResponse-QResponse-SNF-PHQ9-1.html\">Generated Summary: questionnaire: http://example.org/Questionnaire/MDS3.0-NC-1.17; status: completed; authored: Jul 11, 2020 4:30:00 PM</a></p></div>"
        },
        "extension": [
          {
            "url": "http://hl7.org/fhir/us/pacio-cs/StructureDefinition/event-location",
            "valueReference": {
              "reference": "Location/Org-Loc-03"
            }
          }
        ],
        "status": "final",
        "category": [
          {
            "coding": [
              {
                "system": "http://hl7.org/fhir/us/pacio-cs/CodeSystem/pacio-cat-cs",
                "code": "functioning",
                "display": "Functioning"
              }
            ]
          },
          {
            "coding": [
              {
                "system": "http://terminology.hl7.org/CodeSystem/observation-category",
                "code": "survey"
              }
            ]
          }
        ],
        "code": {
          "coding": [
            {
              "system": "http://loinc.org",
              "code": "54644-0",
              "display": "Poor appetite or overeating in last 2 weeks.presence [Reported PHQ-9 CMS]"
            }
          ],
          "text": "Poor appetite or overeating"
        },
        "subject": {
          "reference": "Patient/patientBSJ1"
        },
        "effectiveDateTime": "2020-07-11T11:30:00-05:00",
        "performer": [
          {
            "reference": "PractitionerRole/Role-SLP-LunaBaskins"
          }
        ],
        "valueCodeableConcept": {
          "coding": [
            {
              "system": "http://loinc.org",
              "code": "LA32-8",
              "display": "No"
            }
          ],
          "text": "No"
        },
        "derivedFrom": [
          {
            "reference": "QuestionnaireResponse/QResponse-SNF-PHQ9-1"
          }
        ],
        "resourceType": "Observation"
      },
      "request": {
        "method": "PUT",
        "url": "Observation/CSC-SNF-PHQ9-1-Ob-Question-19"
      }
    },
    {
      "fullUrl": "Observation/CSC-SNF-PHQ9-1-Ob-Question-23",
      "resource": {
        "id": "CSC-SNF-PHQ9-1-Ob-Question-23",
        "meta": {
          "profile": [
            "http://hl7.org/fhir/us/pacio-cs/StructureDefinition/pacio-cs"
          ]
        },
        "text": {
          "status": "extensions",
          "div": "<div xmlns=\"http://www.w3.org/1999/xhtml\"><p><b>Generated Narrative</b></p><p><b>ObservationEventLocation</b>: <a href=\"Location-Org-Loc-03.html\">Generated Summary: status: active; name: Sky Harbor Home Health Services</a></p><p></p><p><b>category</b>: <span title=\"Codes: {http://hl7.org/fhir/us/pacio-cs/CodeSystem/pacio-cat-cs functioning}\">Functioning</span>, <span title=\"Codes: {http://terminology.hl7.org/CodeSystem/observation-category survey}\">Survey</span></p><p><b>code</b>: <span title=\"Codes: {http://loinc.org 54648-1}\">Trouble concentrating on things</span></p><p><b>subject</b>: <a href=\"Patient-patientBSJ1.html\">Generated Summary: Betsy Smith-Johnson</a></p><p><b>effective</b>: Jul 11, 2020 4:30:00 PM</p><p><b>performer</b>: <a href=\"PractitionerRole-Role-SLP-LunaBaskins.html\">Generated Summary: active: true; <span title=\"Codes: {http://snomed.info/sct 159026005}\">Speech and language therapist</span></a></p><p><b>value</b>: <span title=\"Codes: {http://loinc.org LA32-8}\">No</span></p><p><b>derivedFrom</b>: <a href=\"QuestionnaireResponse-QResponse-SNF-PHQ9-1.html\">Generated Summary: questionnaire: http://example.org/Questionnaire/MDS3.0-NC-1.17; status: completed; authored: Jul 11, 2020 4:30:00 PM</a></p></div>"
        },
        "extension": [
          {
            "url": "http://hl7.org/fhir/us/pacio-cs/StructureDefinition/event-location",
            "valueReference": {
              "reference": "Location/Org-Loc-03"
            }
          }
        ],
        "status": "final",
        "category": [
          {
            "coding": [
              {
                "system": "http://hl7.org/fhir/us/pacio-cs/CodeSystem/pacio-cat-cs",
                "code": "functioning",
                "display": "Functioning"
              }
            ]
          },
          {
            "coding": [
              {
                "system": "http://terminology.hl7.org/CodeSystem/observation-category",
                "code": "survey"
              }
            ]
          }
        ],
        "code": {
          "coding": [
            {
              "system": "http://loinc.org",
              "code": "54648-1",
              "display": "Trouble concentrating on things, such as reading the newspaper or watching television in last 2 weeks.presence [Reported PHQ-9 CMS]"
            }
          ],
          "text": "Trouble concentrating on things"
        },
        "subject": {
          "reference": "Patient/patientBSJ1"
        },
        "effectiveDateTime": "2020-07-11T11:30:00-05:00",
        "performer": [
          {
            "reference": "PractitionerRole/Role-SLP-LunaBaskins"
          }
        ],
        "valueCodeableConcept": {
          "coding": [
            {
              "system": "http://loinc.org",
              "code": "LA32-8",
              "display": "No"
            }
          ],
          "text": "No"
        },
        "derivedFrom": [
          {
            "reference": "QuestionnaireResponse/QResponse-SNF-PHQ9-1"
          }
        ],
        "resourceType": "Observation"
      },
      "request": {
        "method": "PUT",
        "url": "Observation/CSC-SNF-PHQ9-1-Ob-Question-23"
      }
    },
    {
      "fullUrl": "Observation/CSC-SNF-BIMS-1-Ob-Question-9",
      "resource": {
        "id": "CSC-SNF-BIMS-1-Ob-Question-9",
        "meta": {
          "profile": [
            "http://hl7.org/fhir/us/pacio-cs/StructureDefinition/pacio-cs"
          ]
        },
        "text": {
          "status": "extensions",
          "div": "<div xmlns=\"http://www.w3.org/1999/xhtml\"><p><b>Generated Narrative</b></p><p><b>ObservationEventLocation</b>: <a href=\"Location-Org-Loc-02.html\">Generated Summary: status: active; name: Happy Nursing Facility</a></p><p></p><p><b>category</b>: <span title=\"Codes: {http://hl7.org/fhir/us/pacio-cs/CodeSystem/pacio-cat-cs functioning}\">Functioning</span>, <span title=\"Codes: {http://terminology.hl7.org/CodeSystem/observation-category survey}\">Survey</span></p><p><b>code</b>: <span title=\"Codes: {http://loinc.org 52737-4}\">Able to recall \"bed\"</span></p><p><b>subject</b>: <a href=\"Patient-patientBSJ1.html\">Generated Summary: Betsy Smith-Johnson</a></p><p><b>effective</b>: Jul 11, 2020 4:30:00 PM</p><p><b>performer</b>: <a href=\"PractitionerRole-Role-SLP-HoneyJones.html\">Generated Summary: active: true; <span title=\"Codes: {http://snomed.info/sct 159026005}\">Speech and language therapist</span></a></p><p><b>value</b>: <span title=\"Codes: {http://loinc.org LA10125-5}\">Yes, after cueing (\"a piece of furniture\")</span></p><p><b>derivedFrom</b>: <a href=\"QuestionnaireResponse-QResponse-SNF-BIMS-1.html\">Generated Summary: questionnaire: http://example.org/Questionnaire/MDS3.0-NC-1.17; status: completed; authored: Jul 11, 2020 4:30:00 PM</a></p></div>"
        },
        "extension": [
          {
            "url": "http://hl7.org/fhir/us/pacio-cs/StructureDefinition/event-location",
            "valueReference": {
              "reference": "Location/Org-Loc-02"
            }
          }
        ],
        "status": "final",
        "category": [
          {
            "coding": [
              {
                "system": "http://hl7.org/fhir/us/pacio-cs/CodeSystem/pacio-cat-cs",
                "code": "functioning",
                "display": "Functioning"
              }
            ]
          },
          {
            "coding": [
              {
                "system": "http://terminology.hl7.org/CodeSystem/observation-category",
                "code": "survey"
              }
            ]
          }
        ],
        "code": {
          "coding": [
            {
              "system": "http://loinc.org",
              "code": "52737-4",
              "display": "Recall - bed [BIMS]"
            }
          ],
          "text": "Able to recall \"bed\""
        },
        "subject": {
          "reference": "Patient/patientBSJ1"
        },
        "effectiveDateTime": "2020-07-11T11:30:00-05:00",
        "performer": [
          {
            "reference": "PractitionerRole/Role-SLP-HoneyJones"
          }
        ],
        "valueCodeableConcept": {
          "coding": [
            {
              "system": "http://loinc.org",
              "code": "LA10125-5",
              "display": "Yes, after cueing (\"a piece of furniture\")"
            }
          ],
          "text": "Yes, after cueing (\"a piece of furniture\")"
        },
        "derivedFrom": [
          {
            "reference": "QuestionnaireResponse/QResponse-SNF-BIMS-1"
          }
        ],
        "resourceType": "Observation"
      },
      "request": {
        "method": "PUT",
        "url": "Observation/CSC-SNF-BIMS-1-Ob-Question-9"
      }
    },
    {
      "fullUrl": "PractitionerRole/provider-role-pcp",
      "resource": {
        "id": "provider-role-pcp",
        "text": {
          "status": "generated",
          "div": "<div xmlns=\"http://www.w3.org/1999/xhtml\"><p><b>Generated Narrative</b></p><p><b>active</b>: true</p><p><b>practitioner</b>: <a href=\"Practitioner-Practitioner-JohnSmith.html\">Generated Summary: id: 4278275001; active: true; John Smith; gender: male</a></p><p><b>organization</b>: <a href=\"Organization-provider-org-01.html\">Generated Summary: name: Primary Care INC.</a></p><p><b>code</b>: <span title=\"Codes: {http://nucc.org/provider-taxonomy 261QP2300X}\">Primary Care Clinic/Center</span></p><p><b>location</b>: <a href=\"Location-provider-org-loc-01.html\">Generated Summary: status: active; name: Primary Care INC.</a></p></div>"
        },
        "active": true,
        "practitioner": {
          "reference": "Practitioner/Practitioner-JohnSmith"
        },
        "organization": {
          "reference": "Organization/provider-org-01"
        },
        "code": [
          {
            "coding": [
              {
                "system": "http://nucc.org/provider-taxonomy",
                "code": "261QP2300X",
                "display": "Primary Care Clinic/Center"
              }
            ]
          }
        ],
        "location": [
          {
            "reference": "Location/provider-org-loc-01"
          }
        ],
        "resourceType": "PractitionerRole"
      },
      "request": {
        "method": "PUT",
        "url": "PractitionerRole/provider-role-pcp"
      }
    },
    {
      "fullUrl": "Observation/CSC-SNF-PHQ9-1-Ob-Question-15",
      "resource": {
        "id": "CSC-SNF-PHQ9-1-Ob-Question-15",
        "meta": {
          "profile": [
            "http://hl7.org/fhir/us/pacio-cs/StructureDefinition/pacio-cs"
          ]
        },
        "text": {
          "status": "extensions",
          "div": "<div xmlns=\"http://www.w3.org/1999/xhtml\"><p><b>Generated Narrative</b></p><p><b>ObservationEventLocation</b>: <a href=\"Location-Org-Loc-03.html\">Generated Summary: status: active; name: Sky Harbor Home Health Services</a></p><p></p><p><b>category</b>: <span title=\"Codes: {http://hl7.org/fhir/us/pacio-cs/CodeSystem/pacio-cat-cs functioning}\">Functioning</span>, <span title=\"Codes: {http://terminology.hl7.org/CodeSystem/observation-category survey}\">Survey</span></p><p><b>code</b>: <span title=\"Codes: {http://loinc.org 54640-8}\">Trouble falling or staying asleep</span></p><p><b>subject</b>: <a href=\"Patient-patientBSJ1.html\">Generated Summary: Betsy Smith-Johnson</a></p><p><b>effective</b>: Jul 11, 2020 4:30:00 PM</p><p><b>performer</b>: <a href=\"PractitionerRole-Role-SLP-LunaBaskins.html\">Generated Summary: active: true; <span title=\"Codes: {http://snomed.info/sct 159026005}\">Speech and language therapist</span></a></p><p><b>value</b>: <span title=\"Codes: {http://loinc.org LA33-6}\">Yes</span></p><p><b>derivedFrom</b>: <a href=\"QuestionnaireResponse-QResponse-SNF-PHQ9-1.html\">Generated Summary: questionnaire: http://example.org/Questionnaire/MDS3.0-NC-1.17; status: completed; authored: Jul 11, 2020 4:30:00 PM</a></p></div>"
        },
        "extension": [
          {
            "url": "http://hl7.org/fhir/us/pacio-cs/StructureDefinition/event-location",
            "valueReference": {
              "reference": "Location/Org-Loc-03"
            }
          }
        ],
        "status": "final",
        "category": [
          {
            "coding": [
              {
                "system": "http://hl7.org/fhir/us/pacio-cs/CodeSystem/pacio-cat-cs",
                "code": "functioning",
                "display": "Functioning"
              }
            ]
          },
          {
            "coding": [
              {
                "system": "http://terminology.hl7.org/CodeSystem/observation-category",
                "code": "survey"
              }
            ]
          }
        ],
        "code": {
          "coding": [
            {
              "system": "http://loinc.org",
              "code": "54640-8",
              "display": "Trouble falling or staying asleep, or sleeping too much in last 2 weeks.presence [Reported PHQ-9 CMS]"
            }
          ],
          "text": "Trouble falling or staying asleep"
        },
        "subject": {
          "reference": "Patient/patientBSJ1"
        },
        "effectiveDateTime": "2020-07-11T11:30:00-05:00",
        "performer": [
          {
            "reference": "PractitionerRole/Role-SLP-LunaBaskins"
          }
        ],
        "valueCodeableConcept": {
          "coding": [
            {
              "system": "http://loinc.org",
              "code": "LA33-6",
              "display": "Yes"
            }
          ],
          "text": "Yes"
        },
        "derivedFrom": [
          {
            "reference": "QuestionnaireResponse/QResponse-SNF-PHQ9-1"
          }
        ],
        "resourceType": "Observation"
      },
      "request": {
        "method": "PUT",
        "url": "Observation/CSC-SNF-PHQ9-1-Ob-Question-15"
      }
    },
    {
      "fullUrl": "QuestionnaireResponse/QResponse-Hospital-MMSE-1",
      "resource": {
        "id": "QResponse-Hospital-MMSE-1",
        "meta": {
          "profile": [
            "http://hl7.org/fhir/uv/sdc/StructureDefinition/sdc-questionnaireresponse"
          ]
        },
        "text": {
          "status": "generated",
          "div": "<div xmlns=\"http://www.w3.org/1999/xhtml\"><p><b>Generated Narrative</b></p><p><b>questionnaire</b>: <a href=\"http://example.org/Questionnaire/MDS3.0-NC-1.17\">http://example.org/Questionnaire/MDS3.0-NC-1.17</a></p><p><b>status</b>: completed</p><p><b>subject</b>: <a href=\"Patient-patientBSJ1.html\">Generated Summary: Betsy Smith-Johnson</a></p><p><b>authored</b>: Jul 8, 2020 10:32:00 PM</p><p><b>author</b>: <a href=\"PractitionerRole-Role-SLP-JennyGlass.html\">Generated Summary: active: true; <span title=\"Codes: {http://snomed.info/sct 159026005}\">Speech and language therapist</span></a></p><blockquote><p><b>item</b></p><p><b>linkId</b>: MMSE</p><p><b>text</b>: Mini-Mental State Examination [MMSE]</p><blockquote><p><b>item</b></p><p><b>linkId</b>: MMSE/ToTalScore</p><p><b>text</b>: MMSE Total Score</p></blockquote></blockquote></div>"
        },
        "questionnaire": "http://example.org/Questionnaire/MDS3.0-NC-1.17",
        "status": "completed",
        "subject": {
          "reference": "Patient/patientBSJ1"
        },
        "authored": "2020-07-08T17:32:00-05:00",
        "author": {
          "reference": "PractitionerRole/Role-SLP-JennyGlass"
        },
        "item": [
          {
            "linkId": "MMSE",
            "text": "Mini-Mental State Examination [MMSE]",
            "item": [
              {
                "linkId": "MMSE/ToTalScore",
                "text": "MMSE Total Score",
                "answer": [
                  {
                    "valueQuantity": {
                      "value": 20,
                      "system": "http://unitsofmeasure.org",
                      "code": "{score}"
                    }
                  }
                ]
              }
            ]
          }
        ],
        "resourceType": "QuestionnaireResponse"
      },
      "request": {
        "method": "PUT",
        "url": "QuestionnaireResponse/QResponse-Hospital-MMSE-1"
      }
    },
    {
      "fullUrl": "Organization/Org-01",
      "resource": {
        "id": "Org-01",
        "text": {
          "status": "generated",
          "div": "<div xmlns=\"http://www.w3.org/1999/xhtml\"><p><b>Generated Narrative</b></p><p><b>name</b>: San Antonio General Hospital</p></div>"
        },
        "name": "San Antonio General Hospital",
        "resourceType": "Organization"
      },
      "request": {
        "method": "PUT",
        "url": "Organization/Org-01"
      }
    },
    {
      "fullUrl": "Observation/CSC-Hospital-MMSE-1",
      "resource": {
        "id": "CSC-Hospital-MMSE-1",
        "meta": {
          "profile": [
            "http://hl7.org/fhir/us/pacio-cs/StructureDefinition/pacio-csc"
          ]
        },
        "text": {
          "status": "extensions",
          "div": "<div xmlns=\"http://www.w3.org/1999/xhtml\"><p><b>Generated Narrative</b></p><p><b>ObservationEventLocation</b>: <a href=\"Location-Org-Loc-01.html\">Generated Summary: status: active; name: San Antonio General Hospital</a></p><p></p><p><b>category</b>: <span title=\"Codes: {http://hl7.org/fhir/us/pacio-cs/CodeSystem/pacio-cat-cs functioning}\">Functioning</span>, <span title=\"Codes: {http://terminology.hl7.org/CodeSystem/observation-category survey}\">Survey</span></p><p><b>code</b>: <span title=\"Codes: {http://loinc.org 72107-6}\">Mini-Mental State Examination [MMSE]</span></p><p><b>subject</b>: <a href=\"Patient-patientBSJ1.html\">Generated Summary: Betsy Smith-Johnson</a></p><p><b>effective</b>: Jul 8, 2020 10:32:00 PM</p><p><b>performer</b>: <a href=\"PractitionerRole-Role-SLP-JennyGlass.html\">Generated Summary: active: true; <span title=\"Codes: {http://snomed.info/sct 159026005}\">Speech and language therapist</span></a></p><p><b>hasMember</b>: <a href=\"Observation-CSC-Hospital-MMSE-1-Ob-Question-31.html\">Generated Summary: <span title=\"Codes: {http://hl7.org/fhir/us/pacio-cs/CodeSystem/pacio-cat-cs functioning}\">Functioning</span>, <span title=\"Codes: {http://terminology.hl7.org/CodeSystem/observation-category survey}\">Survey</span>; <span title=\"Codes: {http://loinc.org 72106-8}\">Total score [MMSE]</span>; effective: Jul 8, 2020 10:32:00 PM; 20 {score}</a></p><p><b>derivedFrom</b>: <a href=\"QuestionnaireResponse-QResponse-Hospital-MMSE-1.html\">Generated Summary: questionnaire: http://example.org/Questionnaire/MDS3.0-NC-1.17; status: completed; authored: Jul 8, 2020 10:32:00 PM</a></p></div>"
        },
        "extension": [
          {
            "url": "http://hl7.org/fhir/us/pacio-cs/StructureDefinition/event-location",
            "valueReference": {
              "reference": "Location/Org-Loc-01"
            }
          }
        ],
        "status": "final",
        "category": [
          {
            "coding": [
              {
                "system": "http://hl7.org/fhir/us/pacio-cs/CodeSystem/pacio-cat-cs",
                "code": "functioning",
                "display": "Functioning"
              }
            ]
          },
          {
            "coding": [
              {
                "system": "http://terminology.hl7.org/CodeSystem/observation-category",
                "code": "survey",
                "display": "Survey"
              }
            ]
          }
        ],
        "code": {
          "coding": [
            {
              "system": "http://loinc.org",
              "code": "72107-6",
              "display": "Mini-Mental State Examination [MMSE]"
            }
          ]
        },
        "subject": {
          "reference": "Patient/patientBSJ1"
        },
        "effectiveDateTime": "2020-07-08T17:32:00-05:00",
        "performer": [
          {
            "reference": "PractitionerRole/Role-SLP-JennyGlass"
          }
        ],
        "hasMember": [
          {
            "reference": "Observation/CSC-Hospital-MMSE-1-Ob-Question-31"
          }
        ],
        "derivedFrom": [
          {
            "reference": "QuestionnaireResponse/QResponse-Hospital-MMSE-1"
          }
        ],
        "resourceType": "Observation"
      },
      "request": {
        "method": "PUT",
        "url": "Observation/CSC-Hospital-MMSE-1"
      }
    },
    {
      "fullUrl": "Observation/CSC-SNF-BIMS-1-Ob-Question-5",
      "resource": {
        "id": "CSC-SNF-BIMS-1-Ob-Question-5",
        "meta": {
          "profile": [
            "http://hl7.org/fhir/us/pacio-cs/StructureDefinition/pacio-cs"
          ]
        },
        "text": {
          "status": "extensions",
          "div": "<div xmlns=\"http://www.w3.org/1999/xhtml\"><p><b>Generated Narrative</b></p><p><b>ObservationEventLocation</b>: <a href=\"Location-Org-Loc-02.html\">Generated Summary: status: active; name: Happy Nursing Facility</a></p><p></p><p><b>category</b>: <span title=\"Codes: {http://hl7.org/fhir/us/pacio-cs/CodeSystem/pacio-cat-cs functioning}\">Functioning</span>, <span title=\"Codes: {http://terminology.hl7.org/CodeSystem/observation-category survey}\">Survey</span></p><p><b>code</b>: <span title=\"Codes: {http://loinc.org 52733-3}\">Able to report correct month</span></p><p><b>subject</b>: <a href=\"Patient-patientBSJ1.html\">Generated Summary: Betsy Smith-Johnson</a></p><p><b>effective</b>: Jul 11, 2020 4:30:00 PM</p><p><b>performer</b>: <a href=\"PractitionerRole-Role-SLP-HoneyJones.html\">Generated Summary: active: true; <span title=\"Codes: {http://snomed.info/sct 159026005}\">Speech and language therapist</span></a></p><p><b>value</b>: <span title=\"Codes: {http://loinc.org LA10010-9}\">Missed by 6 days to 1 month</span></p><p><b>derivedFrom</b>: <a href=\"QuestionnaireResponse-QResponse-SNF-BIMS-1.html\">Generated Summary: questionnaire: http://example.org/Questionnaire/MDS3.0-NC-1.17; status: completed; authored: Jul 11, 2020 4:30:00 PM</a></p></div>"
        },
        "extension": [
          {
            "url": "http://hl7.org/fhir/us/pacio-cs/StructureDefinition/event-location",
            "valueReference": {
              "reference": "Location/Org-Loc-02"
            }
          }
        ],
        "status": "final",
        "category": [
          {
            "coding": [
              {
                "system": "http://hl7.org/fhir/us/pacio-cs/CodeSystem/pacio-cat-cs",
                "code": "functioning",
                "display": "Functioning"
              }
            ]
          },
          {
            "coding": [
              {
                "system": "http://terminology.hl7.org/CodeSystem/observation-category",
                "code": "survey"
              }
            ]
          }
        ],
        "code": {
          "coding": [
            {
              "system": "http://loinc.org",
              "code": "52733-3",
              "display": "Temporal orientation - current month [BIMS]"
            }
          ],
          "text": "Able to report correct month"
        },
        "subject": {
          "reference": "Patient/patientBSJ1"
        },
        "effectiveDateTime": "2020-07-11T11:30:00-05:00",
        "performer": [
          {
            "reference": "PractitionerRole/Role-SLP-HoneyJones"
          }
        ],
        "valueCodeableConcept": {
          "coding": [
            {
              "system": "http://loinc.org",
              "code": "LA10010-9",
              "display": "Missed by 6 days to 1 month"
            }
          ],
          "text": "Missed by 6 days to 1 month"
        },
        "derivedFrom": [
          {
            "reference": "QuestionnaireResponse/QResponse-SNF-BIMS-1"
          }
        ],
        "resourceType": "Observation"
      },
      "request": {
        "method": "PUT",
        "url": "Observation/CSC-SNF-BIMS-1-Ob-Question-5"
      }
    }
  ],
  "resourceType": "Bundle"
}