{
  "type": "message",
  "entry": [
    {
      "resource": {
        "extension": [
          {
            "url": "https://github.com/Open-Health-Manager/patient-data-receipt-ig/StructureDefinition/AccountExtension",
            "valueString": "P0522-v2-PatientBSJ1"
          }
        ],
        "eventUri": "urn:mitre:healthmanager:pdr",
        "source": {
          "endpoint": "http://sample.data.org/"
        },
        "resourceType": "MessageHeader"
      }
    },
    {
      "resource": {
        "id": "P0522-v2-eLTSS-contractSigned-Updated",
        "meta": {
          "profile": [
            "http://hl7.org/fhir/us/eLTSS/StructureDefinition/Contract-eltss"
          ]
        },
        "signer": [
          {
            "type": {
              "system": "http://terminology.hl7.org/CodeSystem/contractsignertypecodes",
              "code": "PAT"
            },
            "party": {
              "reference": "Patient/P0522-v2-patientBSJ1"
            },
            "signature": [
              {
                "type": [
                  {
                    "system": "urn:iso-astm:E1762-95:2013",
                    "code": "1.2.840.10065.1.12.1.7"
                  }
                ],
                "when": "2021-05-30T03:00:00Z",
                "who": {
                  "reference": "Patient/P0522-v2-patientBSJ1"
                },
                "data": ""
              }
            ]
          },
          {
            "type": {
              "system": "http://terminology.hl7.org/CodeSystem/contractsignertypecodes",
              "code": "GUARD"
            },
            "party": {
              "reference": "RelatedPerson/P0522-v2-RP-eLTSS-guardian-sonCharlesJohnson"
            },
            "signature": [
              {
                "type": [
                  {
                    "system": "urn:iso-astm:E1762-95:2013",
                    "code": "1.2.840.10065.1.12.1.7"
                  }
                ],
                "when": "2021-05-30T03:00:00Z",
                "who": {
                  "reference": "RelatedPerson/P0522-v2-RP-eLTSS-guardian-sonCharlesJohnson"
                },
                "data": ""
              }
            ]
          },
          {
            "type": {
              "system": "http://terminology.hl7.org/CodeSystem/contractsignertypecodes",
              "code": "AUT"
            },
            "party": {
              "reference": "Practitioner/P0522-v2-Practitioner-eLTSS-planner-MarkPlanner"
            },
            "signature": [
              {
                "type": [
                  {
                    "system": "urn:iso-astm:E1762-95:2013",
                    "code": "1.2.840.10065.1.12.1.1"
                  }
                ],
                "when": "2021-05-30T03:00:00Z",
                "who": {
                  "reference": "Practitioner/P0522-v2-Practitioner-eLTSS-planner-MarkPlanner"
                },
                "data": ""
              }
            ]
          },
          {
            "type": {
              "system": "http://terminology.hl7.org/CodeSystem/contractsignertypecodes",
              "code": "COAUTH"
            },
            "party": {
              "reference": "Practitioner/P0522-v2-Practitioner-eLTSS-caremgr-SamMonitor"
            },
            "signature": [
              {
                "type": [
                  {
                    "system": "urn:iso-astm:E1762-95:2013",
                    "code": "1.2.840.10065.1.12.1.1"
                  }
                ],
                "when": "2021-05-30T03:00:00Z",
                "who": {
                  "reference": "Practitioner/P0522-v2-Practitioner-eLTSS-caremgr-SamMonitor"
                },
                "data": ""
              }
            ]
          },
          {
            "type": {
              "system": "http://terminology.hl7.org/CodeSystem/contractsignertypecodes",
              "code": "HPROV"
            },
            "party": {
              "reference": "Practitioner/P0522-v2-Practitioner-eLTSS-LisaEducator"
            },
            "signature": [
              {
                "type": [
                  {
                    "system": "urn:iso-astm:E1762-95:2013",
                    "code": "1.2.840.10065.1.12.1.7"
                  }
                ],
                "when": "2021-05-30T03:00:00Z",
                "who": {
                  "reference": "Practitioner/P0522-v2-Practitioner-eLTSS-LisaEducator"
                },
                "data": ""
              }
            ]
          },
          {
            "type": {
              "system": "http://terminology.hl7.org/CodeSystem/contractsignertypecodes",
              "code": "HPROV"
            },
            "party": {
              "reference": "Practitioner/P0522-v2-Practitioner-eLTSS-driver-BillDriver"
            },
            "signature": [
              {
                "type": [
                  {
                    "system": "urn:iso-astm:E1762-95:2013",
                    "code": "1.2.840.10065.1.12.1.7"
                  }
                ],
                "when": "2021-05-30T03:00:00Z",
                "who": {
                  "reference": "Practitioner/P0522-v2-Practitioner-eLTSS-driver-BillDriver"
                },
                "data": ""
              }
            ]
          }
        ],
        "resourceType": "Contract"
      }
    },
    {
      "resource": {
        "id": "P0522-v2-eLTSS-episode-Updated",
        "meta": {
          "profile": [
            "http://hl7.org/fhir/us/eLTSS/StructureDefinition/EpisodeOfCare-eltss"
          ]
        },
        "status": "active",
        "patient": {
          "reference": "Patient/P0522-v2-patientBSJ1"
        },
        "careManager": {
          "reference": "Practitioner/P0522-v2-Practitioner-eLTSS-caremgr-SamMonitor"
        },
        "resourceType": "EpisodeOfCare"
      }
    },
    {
      "resource": {
        "id": "P0522-v2-eLTSS-Careplan-eLTSS-Personal-Updated",
        "meta": {
          "profile": [
            "http://hl7.org/fhir/us/eLTSS/StructureDefinition/CarePlan-eltss"
          ]
        },
        "status": "active",
        "intent": "plan",
        "category": [
          {
            "coding": [
              {
                "system": "http://hl7.org/fhir/us/core/CodeSystem/careplan-category",
                "code": "assess-plan"
              }
            ]
          }
        ],
        "title": "Betsy Smith Johnson's Services and Supports Plan for 2021",
        "description": "A service and support plan that outlines Betsy's assessed needs, goals, strengths, preferences, and services/providers to meet those needs and goals.",
        "subject": {
          "reference": "Patient/P0522-v2-patientBSJ1"
        },
        "period": {
          "start": "2021-06-01",
          "end": "2022-05-31"
        },
        "author": {
          "reference": "Practitioner/P0522-v2-Practitioner-eLTSS-planner-MarkPlanner"
        },
        "addresses": [
          {
            "reference": "Condition/P0522-v2-eLTSS-needTransportation"
          },
          {
            "reference": "Condition/P0522-v2-eLTSS-needDiabetesEducation"
          },
          {
            "reference": "Condition/P0522-v2-eLTSS-needDepressionTreatment"
          }
        ],
        "supportingInfo": [
          {
            "reference": "Observation/P0522-v2-eLTSS-strengthManageBills"
          },
          {
            "reference": "Observation/P0522-v2-eLTSS-preferenceICWP"
          },
          {
            "reference": "QuestionnaireResponse/P0522-v2-eLTSS-questionnaireResponseServices-Updated"
          },
          {
            "reference": "Contract/P0522-v2-eLTSS-contractSigned-Updated"
          },
          {
            "reference": "RiskAssessment/P0522-v2-eLTSS-riskFalls"
          }
        ],
        "goal": [
          {
            "reference": "Goal/P0522-v2-eLTSS-goalDanceDaughterWedding"
          }
        ],
        "activity": [
          {
            "detail": {
              "goal": [
                {
                  "reference": "Goal/P0522-v2-eLTSS-goalBalance"
                }
              ],
              "status": "not-started",
              "description": "Perform exercises to improve balance skills"
            }
          },
          {
            "detail": {
              "goal": [
                {
                  "reference": "Goal/P0522-v2-eLTSS-goalDanceDaughterWedding"
                }
              ],
              "status": "not-started",
              "description": "Work on mobility to dance at daughter's upcoming wedding"
            }
          },
          {
            "reference": {
              "reference": "ServiceRequest/P0522-v2-eLTSS-serviceTransportation-Updated"
            }
          },
          {
            "reference": {
              "reference": "ServiceRequest/P0522-v2-eLTSS-serviceDiabetesEducation-Updated"
            }
          },
          {
            "reference": {
              "reference": "ServiceRequest/P0522-v2-eLTSS-serviceBalance-Updated"
            }
          }
        ],
        "resourceType": "CarePlan"
      }
    },
    {
      "resource": {
        "id": "P0522-v2-eLTSS-serviceDiabetesEducation-Updated",
        "meta": {
          "profile": [
            "http://hl7.org/fhir/us/eLTSS/StructureDefinition/ServiceRequest-eltss"
          ]
        },
        "status": "active",
        "intent": "plan",
        "code": {
          "coding": [
            {
              "system": "urn:oid:2.16.840.1.113883.6.14",
              "code": "G0108"
            }
          ],
          "text": "Diabetes outpatient self-management training services, individual, per 30 minutes"
        },
        "quantityRatio": {
          "numerator": {
            "value": 1,
            "unit": "visit"
          },
          "denominator": {
            "value": 1,
            "unit": "week"
          }
        },
        "subject": {
          "reference": "Patient/P0522-v2-patientBSJ1"
        },
        "occurrencePeriod": {
          "start": "2021-06-01",
          "end": "2021-09-01"
        },
        "performer": [
          {
            "reference": "Practitioner/P0522-v2-Practitioner-eLTSS-LisaEducator"
          }
        ],
        "reasonReference": [
          {
            "reference": "Condition/P0522-v2-eLTSS-needDiabetesEducation"
          }
        ],
        "supportingInfo": [
          {
            "reference": "Claim/P0522-v2-eLTSS-claimDiabetesSelfManagement-Updated"
          }
        ],
        "resourceType": "ServiceRequest"
      }
    },
    {
      "resource": {
        "id": "P0522-v2-eLTSS-claimNonEmergencyTransportation-Updated",
        "meta": {
          "profile": [
            "http://hl7.org/fhir/us/eLTSS/StructureDefinition/Claim-eltss"
          ]
        },
        "status": "active",
        "type": {
          "coding": [
            {
              "system": "http://terminology.hl7.org/CodeSystem/claim-type",
              "code": "professional"
            }
          ]
        },
        "use": "claim",
        "patient": {
          "reference": "Patient/P0522-v2-patientBSJ1"
        },
        "created": "2021-06-01",
        "provider": {
          "reference": "Organization/P0522-v2-org-eLTSS-funding"
        },
        "priority": {
          "coding": [
            {
              "system": "http://terminology.hl7.org/CodeSystem/processpriority",
              "code": "normal"
            }
          ]
        },
        "insurance": [
          {
            "sequence": 1,
            "focal": true,
            "coverage": {
              "reference": "Coverage/P0522-v2-eLTSS-coverageICWP"
            }
          }
        ],
        "item": [
          {
            "sequence": 1,
            "productOrService": {
              "coding": [
                {
                  "system": "urn:oid:2.16.840.1.113883.6.14",
                  "code": "T2003"
                }
              ]
            },
            "unitPrice": {
              "value": 60
            },
            "net": {
              "value": 600
            }
          }
        ],
        "resourceType": "Claim"
      }
    },
    {
      "resource": {
        "id": "P0522-v2-eLTSS-serviceBalance-Updated",
        "meta": {
          "profile": [
            "http://hl7.org/fhir/us/eLTSS/StructureDefinition/ServiceRequest-eltss"
          ]
        },
        "status": "active",
        "intent": "plan",
        "code": {
          "coding": [
            {
              "system": "urn:oid:2.16.840.1.113883.6.12",
              "code": "97110"
            }
          ],
          "text": "therapeutic exercises to improve balance skills"
        },
        "quantityRatio": {
          "numerator": {
            "value": 1,
            "unit": "visit"
          },
          "denominator": {
            "value": 1,
            "unit": "week"
          }
        },
        "subject": {
          "reference": "Patient/P0522-v2-patientBSJ1"
        },
        "occurrencePeriod": {
          "start": "2021-06-01",
          "end": "2021-09-01"
        },
        "performer": [
          {
            "reference": "Practitioner/P0522-v2-Practitioner-eLTSS-NormaTrainer"
          }
        ],
        "supportingInfo": [
          {
            "reference": "Goal/P0522-v2-eLTSS-goalBalance"
          },
          {
            "reference": "Goal/P0522-v2-eLTSS-goalDanceDaughterWedding"
          },
          {
            "reference": "Claim/P0522-v2-eLTSS-claimTherapy-Updated"
          }
        ],
        "resourceType": "ServiceRequest"
      }
    },
    {
      "resource": {
        "id": "P0522-v2-eLTSS-questionnaireResponseServices-Updated",
        "questionnaire": "Questionnaire/P0522-v2-eLTSS-questionnaireServices",
        "status": "completed",
        "subject": {
          "reference": "Patient/P0522-v2-patientBSJ1"
        },
        "authored": "2021-05-20T03:00:00Z",
        "item": [
          {
            "linkId": "q1",
            "answer": [
              {
                "valueBoolean": true
              }
            ]
          },
          {
            "linkId": "q2",
            "answer": [
              {
                "valueString": "Assisted living facility"
              }
            ]
          },
          {
            "linkId": "q3",
            "answer": [
              {
                "valueBoolean": true
              }
            ]
          },
          {
            "linkId": "q4",
            "answer": [
              {
                "valueBoolean": true
              }
            ]
          },
          {
            "linkId": "q5",
            "answer": [
              {
                "valueBoolean": true
              }
            ]
          },
          {
            "linkId": "q6",
            "answer": [
              {
                "valueBoolean": true
              }
            ]
          },
          {
            "linkId": "q7",
            "answer": [
              {
                "valueBoolean": true
              }
            ]
          }
        ],
        "resourceType": "QuestionnaireResponse"
      }
    },
    {
      "resource": {
        "id": "P0522-v2-eLTSS-serviceTransportation-Updated",
        "meta": {
          "profile": [
            "http://hl7.org/fhir/us/eLTSS/StructureDefinition/ServiceRequest-eltss"
          ]
        },
        "status": "active",
        "intent": "plan",
        "code": {
          "coding": [
            {
              "system": "urn:oid:2.16.840.1.113883.6.14",
              "code": "T2003"
            }
          ],
          "text": "Non-emergency transportation; encounter/trip"
        },
        "quantityRatio": {
          "numerator": {
            "value": 2,
            "unit": "trips"
          },
          "denominator": {
            "value": 1,
            "unit": "month"
          }
        },
        "subject": {
          "reference": "Patient/P0522-v2-patientBSJ1"
        },
        "occurrencePeriod": {
          "start": "2021-06-01",
          "end": "2022-05-31"
        },
        "performer": [
          {
            "reference": "Organization/P0522-v2-org-eLTSS-transportProvider"
          }
        ],
        "reasonReference": [
          {
            "reference": "Condition/P0522-v2-eLTSS-needTransportation"
          }
        ],
        "insurance": [
          {
            "reference": "Coverage/P0522-v2-eLTSS-coverageICWP"
          }
        ],
        "supportingInfo": [
          {
            "reference": "Claim/P0522-v2-eLTSS-claimNonEmergencyTransportation-Updated"
          }
        ],
        "note": [
          {
            "text": "Service provider will provide a reminder the business day before the trip, and will call when on the way."
          }
        ],
        "resourceType": "ServiceRequest"
      }
    },
    {
      "resource": {
        "id": "P0522-v2-eLTSS-claimTherapy-Updated",
        "meta": {
          "profile": [
            "http://hl7.org/fhir/us/eLTSS/StructureDefinition/Claim-eltss"
          ]
        },
        "status": "active",
        "type": {
          "coding": [
            {
              "system": "http://terminology.hl7.org/CodeSystem/claim-type",
              "code": "professional"
            }
          ]
        },
        "use": "claim",
        "patient": {
          "reference": "Patient/P0522-v2-patientBSJ1"
        },
        "created": "2021-06-01",
        "provider": {
          "reference": "Organization/P0522-v2-org-eLTSS-funding"
        },
        "priority": {
          "coding": [
            {
              "system": "http://terminology.hl7.org/CodeSystem/processpriority",
              "code": "normal"
            }
          ]
        },
        "insurance": [
          {
            "sequence": 1,
            "focal": true,
            "coverage": {
              "reference": "Coverage/P0522-v2-eLTSS-coverageICWP"
            }
          }
        ],
        "item": [
          {
            "sequence": 1,
            "productOrService": {
              "coding": [
                {
                  "system": "urn:oid:2.16.840.1.113883.6.12",
                  "code": "97110"
                }
              ]
            },
            "unitPrice": {
              "value": 65
            },
            "net": {
              "value": 780
            }
          }
        ],
        "resourceType": "Claim"
      }
    },
    {
      "resource": {
        "id": "P0522-v2-eLTSS-claimDiabetesSelfManagement-Updated",
        "meta": {
          "profile": [
            "http://hl7.org/fhir/us/eLTSS/StructureDefinition/Claim-eltss"
          ]
        },
        "status": "active",
        "type": {
          "coding": [
            {
              "system": "http://terminology.hl7.org/CodeSystem/claim-type",
              "code": "professional"
            }
          ]
        },
        "use": "claim",
        "patient": {
          "reference": "Patient/P0522-v2-patientBSJ1"
        },
        "created": "2021-06-01",
        "provider": {
          "reference": "Organization/P0522-v2-org-eLTSS-funding"
        },
        "priority": {
          "coding": [
            {
              "system": "http://terminology.hl7.org/CodeSystem/processpriority",
              "code": "normal"
            }
          ]
        },
        "insurance": [
          {
            "sequence": 1,
            "focal": true,
            "coverage": {
              "reference": "Coverage/P0522-v2-eLTSS-coverageICWP"
            }
          }
        ],
        "item": [
          {
            "sequence": 1,
            "productOrService": {
              "coding": [
                {
                  "system": "urn:oid:2.16.840.1.113883.6.14",
                  "code": "G0108"
                }
              ]
            },
            "unitPrice": {
              "value": 55
            },
            "net": {
              "value": 660
            }
          }
        ],
        "resourceType": "Claim"
      }
    }
  ],
  "resourceType": "Bundle"
}