{
  "type": "transaction",
  "entry": [
    {
      "resource": {
        "resourceType": "Patient",
        "id": "patientBSJ1",
        "meta": {
          "versionId": "4",
          "lastUpdated": "2020-05-11T12:21:03.332-07:00",
          "profile": [
            "http://hl7.org/fhir/us/eLTSS/StructureDefinition/Patient-eltss"
          ]
        },
        "text": {
          "status": "generated",
          "div": "<div xmlns=\"http://www.w3.org/1999/xhtml\">\n            <p><b>Person Information</b></p>\n\t\t\t<blockquote>\n\t\t\t\t<p><b>Name:</b> Betsy Smith-Johnson</p>\n\t\t\t\t<p><b>Identifier | Type:</b> 123456ABC | MRN</p>\n\t\t\t\t<p><b>Phone:</b> (210) 222-1111</p>\n\t\t\t\t<p><b>Date of Birth:</b> 1950-11-01</p>\n\t\t\t\t<p><b>Address:</b> 111 Maple Ct, San Antonio, TX 78212</p>\n\t\t\t\t<p><b>Emergency Contact Name:</b> Charles Johnson</p>\n\t\t\t\t<p><b>Emergency Contact Relationship:</b> son</p>\n\t\t\t\t<p><b>Emergency Contact Phone Number:</b> (210) 222-3333</p>\n\t\t\t</blockquote>\n          </div>"
        },
        "extension": [
          {
            "url": "http://hl7.org/fhir/us/core/StructureDefinition/us-core-race",
            "valueCoding": {
              "code": "2106-3",
              "display": "White"
            }
          },
          {
            "url": "http://terminology.hl7.org/ValueSet/v3-employmentStatusODH",
            "valueCoding": {
              "code": "NotInLaborForce",
              "display": "Retired"
            }
          },
          {
            "url": "http://terminology.hl7.org/CodeSystem/v3-EducationLevel",
            "valueCoding": {
              "code": "HS",
              "display": "High School or secondary school degree complete"
            }
          }
        ],
        "identifier": [
          {
            "fhir_comments": [
              "  [eLTSS Person Identifier] & [eLTSS Person Identifier Type]   "
            ],
            "type": {
              "coding": [
                {
                  "system": "http://terminology.hl7.org/CodeSystem/v2-0203",
                  "code": "MR",
                  "display": "Medical record number"
                }
              ]
            },
            "system": "http://www.example.org/Codesystem",
            "value": "123456ABC"
          },
          {
            "system": "urn:mitre:healthmanager:account:username",
            "value": "PACIO_RT_Example"
          }
        ],
        "name": [
          {
            "fhir_comments": [
              "   [eLTSS Person Name]   "
            ],
            "text": "Betsy Smith-Johnson",
            "family": "Smith-Johnson",
            "given": [
              "Betsy"
            ]
          }
        ],
        "telecom": [
          {
            "fhir_comments": [
              "   [eLTSS Person Phone Number]   "
            ],
            "system": "phone",
            "value": "(210)222-1111",
            "use": "mobile"
          }
        ],
        "gender": "female",
        "birthDate": "1950-11-01",
        "_birthDate": {
          "fhir_comments": [
            "   [eLTSS Person Date of Birth]   "
          ]
        },
        "address": [
          {
            "fhir_comments": [
              "   [eLTSS Person Address]   "
            ],
            "text": "111 Maple Ct, San Antonio, TX 78212",
            "line": [
              "111 Maple Ct"
            ],
            "city": "San Antonio",
            "district": "Bexar",
            "state": "TX",
            "postalCode": "78212"
          }
        ],
        "maritalStatus": {
          "coding": [
            {
              "system": "http://terminology.hl7.org/CodeSystem/v3-MaritalStatus",
              "code": "U",
              "display": "Unmarried"
            }
          ],
          "text": "Not Married"
        },
        "contact": [
          {
            "fhir_comments": [
              "   [eLTSS Emergency Contact Name] & [eLTSS Emergency Contact Relationship] & [eLTSS Emergency Contact Phone Number]  "
            ],
            "relationship": [
              {
                "coding": [
                  {
                    "fhir_comments": [
                      "  code value indicates emergency contact  "
                    ],
                    "system": "http://terminology.hl7.org/fhir/v2-0131",
                    "code": "C",
                    "display": "Emergency Contact"
                  }
                ]
              },
              {
                "coding": [
                  {
                    "fhir_comments": [
                      "  code value indicates guardian  "
                    ],
                    "system": "http://terminology.hl7.org/fhir/v3-RoleCode",
                    "code": "GUARD",
                    "display": "guardian"
                  }
                ]
              },
              {
                "coding": [
                  {
                    "fhir_comments": [
                      "  code value indicates son  "
                    ],
                    "system": "http://terminology.hl7.org/fhir/v3-RoleCode",
                    "code": "SONC",
                    "display": "son"
                  }
                ]
              }
            ],
            "name": {
              "text": "Charles Johnson",
              "family": "Johnson",
              "given": [
                "Charles"
              ]
            },
            "telecom": [
              {
                "system": "phone",
                "value": "(210) 222-3333"
              }
            ],
            "address": {
              "text": "100 Montana St., San Antonio, TX 78203"
            }
          },
          {
            "fhir_comments": [
              "   Daughter name, address and phone number  "
            ],
            "relationship": [
              {
                "coding": [
                  {
                    "fhir_comments": [
                      "  code value indicates daughter  "
                    ],
                    "system": "http://terminology.hl7.org/CodeSystem/v2-0131",
                    "code": "DAUC",
                    "display": "Daughter"
                  }
                ]
              }
            ],
            "name": {
              "text": "Debra Johnson",
              "family": "Johnson",
              "given": [
                "Debra"
              ]
            },
            "telecom": [
              {
                "system": "phone",
                "value": "(410) 444-5555"
              }
            ],
            "address": {
              "text": "333 W. Camden St., Baltimore, MD 21201"
            }
          }
        ],
        "communication": [
          {
            "language": {
              "coding": [
                {
                  "system": "urn:oid:2.16.840.1.113883.1.11.11526",
                  "code": "en",
                  "display": "English"
                }
              ]
            },
            "preferred": true
          }
        ]
      },
      "fullUrl": "Patient/patientBSJ1",
      "request": {
        "method": "PUT",
        "url": "Patient/patientBSJ1"
      }
    },
    {
      "fullUrl": "Claim/claim2",
      "resource": {
        "id": "claim2",
        "meta": {
          "versionId": "2",
          "lastUpdated": "2020-04-28T14:20:16.661-07:00",
          "profile": [
            "http://hl7.org/fhir/us/eLTSS/StructureDefinition/Claim-eltss"
          ]
        },
        "text": {
          "status": "generated",
          "div": "<div xmlns=\"http://www.w3.org/1999/xhtml\">\n\t\t  <p><b>Claim Information</b></p>\n\t\t\t<blockquote>\n\t\t\t<p><b>Patient</b>: <a href=\"Patient/patientBSJ1\">Patient/patientBSJ1</a></p>\n\t\t\t<p><b>Created date</b>: May 1, 2020, 12:00:00 AM</p>\n\t\t\t<p><b>Provider(funding source)</b>: <a href=\"Organization/funding1\">Organization/funding1</a></p>\n\t\t\t<p><b>ProductOrService</b>: G0108 <span style=\"background: LightGoldenRodYellow\">(Details : HCPCS urn:oid:2.16.840.1.113883.6.14 code 'G0108' = 'Diabetes outpatient self-management training services, individual, per 30 minutes')</span></p>\n\t\t\t<p><b>UnitPrice</b>: $55</p>\n\t\t\t<p><b>Net</b>: $660</p>\n\t\t\t</blockquote>\n\t\t  </div>"
        },
        "status": "active",
        "type": {
          "coding": [
            {
              "system": "http://terminology.hl7.org/CodeSystem/claim-type",
              "code": "professional"
            }
          ]
        },
        "use": "claim",
        "patient": {
          "reference": "Patient/patientBSJ1"
        },
        "created": "2020-05-01",
        "provider": {
          "reference": "Organization/funding1"
        },
        "priority": {
          "coding": [
            {
              "system": "http://terminology.hl7.org/CodeSystem/processpriority",
              "code": "normal"
            }
          ]
        },
        "insurance": [
          {
            "sequence": 1,
            "focal": true,
            "coverage": {
              "reference": "Coverage/coverage1"
            }
          }
        ],
        "item": [
          {
            "sequence": 1,
            "productOrService": {
              "coding": [
                {
                  "system": "urn:oid:2.16.840.1.113883.6.14",
                  "code": "G0108"
                }
              ]
            },
            "unitPrice": {
              "value": 55.0
            },
            "net": {
              "value": 660.0
            }
          }
        ],
        "resourceType": "Claim"
      },
      "request": {
        "method": "PUT",
        "url": "Claim/claim2"
      }
    },
    {
      "fullUrl": "Location/location1",
      "resource": {
        "id": "location1",
        "meta": {
          "versionId": "5",
          "lastUpdated": "2020-04-28T14:20:16.698-07:00",
          "profile": [
            "http://hl7.org/fhir/us/eLTSS/StructureDefinition/Location-eltss"
          ]
        },
        "text": {
          "status": "generated",
          "div": "<div xmlns=\"http://www.w3.org/1999/xhtml\">\n\t\t\t<p><b>Service Delivery Location</b></p>\n\t\t\t<blockquote>\n\t\t\t<p><b>name</b>: In Home</p>\n\t\t\t<p><b>address</b>: 111 Maple Ct, San Antonio, TX 78212</p>\n\t\t\t</blockquote>\n\t\t  </div>"
        },
        "name": "In Home",
        "address": {
          "text": "111 Maple Ct, San Antonio, TX 78212"
        },
        "resourceType": "Location"
      },
      "request": {
        "method": "PUT",
        "url": "Location/location1"
      }
    },
    {
      "fullUrl": "Observation/pref1",
      "resource": {
        "id": "pref1",
        "meta": {
          "versionId": "4",
          "lastUpdated": "2020-04-22T14:55:50.124-07:00",
          "profile": [
            "http://hl7.org/fhir/us/eLTSS/StructureDefinition/Observation-eltss"
          ]
        },
        "text": {
          "status": "generated",
          "div": "<div xmlns=\"http://www.w3.org/1999/xhtml\">\n            <p><b>Person Preference:</b> Accessing the ICWP Waiver for her current service needs, and would like to remain on ICWP and continue with her current services.</p>\n          </div>"
        },
        "status": "final",
        "code": {
          "coding": [
            {
              "system": "http://hl7.org/us/eLTSS/CodeSystem/eltss-observation-code",
              "code": "preference"
            }
          ]
        },
        "subject": {
          "reference": "Patient/patientBSJ1"
        },
        "valueString": "Accessing the ICWP Waiver for her current service needs, and would like to remain on ICWP and continue with her current services.",
        "resourceType": "Observation"
      },
      "request": {
        "method": "PUT",
        "url": "Observation/pref1"
      }
    },
    {
      "fullUrl": "ServiceRequest/service1",
      "resource": {
        "id": "service1",
        "meta": {
          "versionId": "5",
          "lastUpdated": "2020-05-11T12:04:02.030-07:00",
          "profile": [
            "http://hl7.org/fhir/us/eLTSS/StructureDefinition/ServiceRequest-eltss"
          ]
        },
        "text": {
          "status": "generated",
          "div": "<div xmlns=\"http://www.w3.org/1999/xhtml\">\n            <p><b>Service Information</b></p>\n\t\t\t<blockquote>\n\t\t\t<p><b>Name / Code:</b> Install bath tub wall rail / E0241</p>\n\t\t\t<p><b>Directed By: </b> self</p>\n\t\t\t<p><b>Provider: </b> <a href=\"RelatedPerson/son1\">RelatedPerson/son1</a></p>\n            <p><b>Start Date / End Date:</b> 2020-05-01 / 2020-12-31</p>\n\t\t\t<p><b>Service Delivery Location: </b> <a href=\"Location/location1\">Location/location1</a></p>\n\t\t\t</blockquote>\n          </div>"
        },
        "extension": [
          {
            "url": "http://hl7.org/fhir/us/eLTSS/StructureDefinition/eltss-directedBy",
            "valueCodeableConcept": {
              "text": "self"
            }
          }
        ],
        "status": "active",
        "intent": "plan",
        "code": {
          "coding": [
            {
              "system": "urn:oid:2.16.840.1.113883.6.14",
              "code": "E0241"
            }
          ],
          "text": "Bath tub wall rail, each"
        },
        "quantityQuantity": {
          "value": 1,
          "unit": "install"
        },
        "subject": {
          "reference": "Patient/patientBSJ1"
        },
        "occurrencePeriod": {
          "start": "2020-05-01",
          "end": "2020-12-31"
        },
        "performer": [
          {
            "reference": "RelatedPerson/son1"
          }
        ],
        "locationReference": [
          {
            "reference": "Location/location1"
          }
        ],
        "supportingInfo": [
          {
            "reference": "RiskAssessment/risk1"
          }
        ],
        "resourceType": "ServiceRequest"
      },
      "request": {
        "method": "PUT",
        "url": "ServiceRequest/service1"
      }
    },
    {
      "fullUrl": "Goal/goal1",
      "resource": {
        "id": "goal1",
        "meta": {
          "versionId": "2",
          "lastUpdated": "2020-04-22T14:55:50.087-07:00",
          "profile": [
            "http://hl7.org/fhir/us/eLTSS/StructureDefinition/Goal-eltss"
          ]
        },
        "text": {
          "status": "generated",
          "div": "<div xmlns=\"http://www.w3.org/1999/xhtml\">\n            <p><b>Person Goal:</b> Improve balance skills</p>\n          </div>"
        },
        "lifecycleStatus": "accepted",
        "description": {
          "text": "Improve balance skills"
        },
        "subject": {
          "reference": "Patient/patientBSJ1"
        },
        "resourceType": "Goal"
      },
      "request": {
        "method": "PUT",
        "url": "Goal/goal1"
      }
    },
    {
      "fullUrl": "Claim/claim3",
      "resource": {
        "id": "claim3",
        "meta": {
          "versionId": "2",
          "lastUpdated": "2020-04-28T14:20:16.653-07:00",
          "profile": [
            "http://hl7.org/fhir/us/eLTSS/StructureDefinition/Claim-eltss"
          ]
        },
        "text": {
          "status": "generated",
          "div": "<div xmlns=\"http://www.w3.org/1999/xhtml\">\n\t\t  \t<p><b>Claim Information</b></p>\n\t\t\t  <blockquote>\n\t\t\t\t<p><b>Patient</b>: <a href=\"Patient/patientBSJ1\">Patient/patientBSJ1</a></p>\n\t\t\t\t<p><b>Created date</b>: May 1, 2020, 12:00:00 AM</p>\n\t\t\t\t<p><b>Provider(funding source)</b>: <a href=\"Organization/funding1\">Organization/funding1</a></p>\n\t\t\t\t<p><b>ProductOrService</b>: 97110 <span style=\"background: LightGoldenRodYellow\">(Details : CPT urn:oid:2.16.840.1.113883.6.12 code '97110' = 'Therapeutic exercise')</span></p>\n\t\t\t\t<p><b>UnitPrice</b>: $65</p>\n\t\t\t\t<p><b>Net</b>: $780</p>\n\t\t\t  </blockquote>\n\t\t </div>"
        },
        "status": "active",
        "type": {
          "coding": [
            {
              "system": "http://terminology.hl7.org/CodeSystem/claim-type",
              "code": "professional"
            }
          ]
        },
        "use": "claim",
        "patient": {
          "reference": "Patient/patientBSJ1"
        },
        "created": "2020-05-01",
        "provider": {
          "reference": "Organization/funding1"
        },
        "priority": {
          "coding": [
            {
              "system": "http://terminology.hl7.org/CodeSystem/processpriority",
              "code": "normal"
            }
          ]
        },
        "insurance": [
          {
            "sequence": 1,
            "focal": true,
            "coverage": {
              "reference": "Coverage/coverage1"
            }
          }
        ],
        "item": [
          {
            "sequence": 1,
            "productOrService": {
              "coding": [
                {
                  "system": "urn:oid:2.16.840.1.113883.6.12",
                  "code": "97110"
                }
              ]
            },
            "unitPrice": {
              "value": 65.0
            },
            "net": {
              "value": 780.0
            }
          }
        ],
        "resourceType": "Claim"
      },
      "request": {
        "method": "PUT",
        "url": "Claim/claim3"
      }
    },
    {
      "fullUrl": "Coverage/coverage1",
      "resource": {
        "id": "coverage1",
        "meta": {
          "versionId": "3",
          "lastUpdated": "2020-04-28T14:20:16.688-07:00"
        },
        "text": {
          "status": "generated",
          "div": "<div xmlns=\"http://www.w3.org/1999/xhtml\">\n\t\t\t<p><b>Coverage linking the funding source and patient </b></p>\n\t\t\t<blockquote>\n\t\t\t<p><b>Coverage beneficiary</b>: <a href=\"Patient/patientBSJ1\">Patient/patientBSJ1</a></p>\n\t\t\t<p><b>Coverage payor</b>: <a href=\"Organization/funding1\">Organization/funding1</a></p>\n\t\t\t</blockquote>\n\t\t\t</div>"
        },
        "status": "active",
        "beneficiary": {
          "reference": "Patient/patientBSJ1"
        },
        "payor": [
          {
            "reference": "Organization/funding1"
          }
        ],
        "resourceType": "Coverage"
      },
      "request": {
        "method": "PUT",
        "url": "Coverage/coverage1"
      }
    },
    {
      "fullUrl": "Practitioner/provider2b",
      "resource": {
        "id": "provider2b",
        "meta": {
          "versionId": "2",
          "lastUpdated": "2020-04-28T14:20:16.633-07:00",
          "profile": [
            "http://hl7.org/fhir/us/eLTSS/StructureDefinition/Practitioner-eltss"
          ]
        },
        "text": {
          "status": "generated",
          "div": "<div xmlns=\"http://www.w3.org/1999/xhtml\">\n\t\t\t<p><b>Provider name, identifier,  phone: </b> Bill Driver, 11223344, (210) 111 2222</p>\n\t\t  </div>"
        },
        "identifier": [
          {
            "system": "http://www.acme.org/practitioners",
            "value": "11223344"
          }
        ],
        "name": [
          {
            "text": "Bill Driver",
            "family": "Driver",
            "given": [
              "Bill"
            ]
          }
        ],
        "telecom": [
          {
            "system": "phone",
            "value": "(210) 111 2222"
          }
        ],
        "resourceType": "Practitioner"
      },
      "request": {
        "method": "PUT",
        "url": "Practitioner/provider2b"
      }
    },
    {
      "fullUrl": "Condition/need1",
      "resource": {
        "id": "need1",
        "meta": {
          "versionId": "2",
          "lastUpdated": "2020-04-22T14:55:50.134-07:00",
          "profile": [
            "http://hl7.org/fhir/us/eLTSS/StructureDefinition/Condition-eltss"
          ]
        },
        "text": {
          "status": "generated",
          "div": "<div xmlns=\"http://www.w3.org/1999/xhtml\">\n            <p><b>Assessed Need:</b> Needs transportation</p>\n          </div>"
        },
        "clinicalStatus": {
          "coding": [
            {
              "system": "http://terminology.hl7.org/CodeSystem/condition-clinical",
              "code": "active"
            }
          ]
        },
        "verificationStatus": {
          "coding": [
            {
              "system": "http://terminology.hl7.org/CodeSystem/condition-ver-status",
              "code": "confirmed"
            }
          ]
        },
        "category": [
          {
            "coding": [
              {
                "system": "http://hl7.org/fhir/us/eLTSS/CodeSystem/eltss-condition-category-code",
                "code": "assessed-need"
              }
            ]
          }
        ],
        "code": {
          "coding": [
            {
              "system": "http://snomed.info/sct",
              "code": "713458007",
              "display": "Lack of access to transportation (finding)"
            }
          ],
          "text": "Needs transportation"
        },
        "subject": {
          "reference": "Patient/patientBSJ1"
        },
        "resourceType": "Condition"
      },
      "request": {
        "method": "PUT",
        "url": "Condition/need1"
      }
    },
    {
      "fullUrl": "Observation/strength2",
      "resource": {
        "id": "strength2",
        "meta": {
          "versionId": "1",
          "lastUpdated": "2020-04-28T14:20:16.485-07:00",
          "profile": [
            "http://hl7.org/fhir/us/eLTSS/StructureDefinition/Observation-eltss"
          ]
        },
        "text": {
          "status": "generated",
          "div": "<div xmlns=\"http://www.w3.org/1999/xhtml\">\n            <p><b>Person Strength:</b> Independent walking with cane</p>\n          </div>"
        },
        "status": "final",
        "code": {
          "coding": [
            {
              "system": "http://hl7.org/us/eLTSS/CodeSystem/eltss-observation-code",
              "code": "strength"
            }
          ]
        },
        "subject": {
          "reference": "Patient/patientBSJ1"
        },
        "valueString": "Independent walking with cane.",
        "resourceType": "Observation"
      },
      "request": {
        "method": "PUT",
        "url": "Observation/strength2"
      }
    },
    {
      "fullUrl": "CarePlan/careplan2",
      "resource": {
        "id": "careplan2",
        "meta": {
          "versionId": "3",
          "lastUpdated": "2020-04-28T14:20:16.621-07:00",
          "profile": [
            "http://hl7.org/fhir/us/eLTSS/StructureDefinition/CarePlan-eltss"
          ]
        },
        "text": {
          "status": "generated",
          "div": "<div xmlns=\"http://www.w3.org/1999/xhtml\">\n\t\t\t<p><b>Emergency Backup Plan</b></p>\n\t\t\t<blockquote>\n\t\t\t\t<p><b>id</b>: careplan2, <b>partOf </b>: <a href=\"CarePlan/careplan1\">CarePlan/careplan1</a>, <b>status</b>:active, <b>intent</b>: plan</p>\n\t\t\t\t<p><b>description</b>: Weather Emergencies: A shelf stable meal is delivered to Meals On Wheels clients. It is to be eaten in the unlikely event of cancellation. Weather meals are donated by the Sheboygan Service Club.</p>\n\t\t\t\t<p><b>subject</b>: <a href=\"Patient/patientBSJ1\">Patient/patientBSJ1</a></p>\n\t\t\t</blockquote>\n\t\t  </div>"
        },
        "partOf": [
          {
            "reference": "CarePlan/careplan1"
          }
        ],
        "status": "active",
        "intent": "plan",
        "category": [
          {
            "coding": [
              {
                "system": "http://hl7.org/fhir/us/core/CodeSystem/careplan-category",
                "code": "assess-plan"
              }
            ]
          }
        ],
        "description": "Weather Emergency: A shelf-stable meal is delivered to Meals On Wheels clients. It is to be eaten in the unlikely event of cancellation. Weather meals are donated by the Sheboygan Service Club.",
        "subject": {
          "reference": "Patient/patientBSJ1"
        },
        "resourceType": "CarePlan"
      },
      "request": {
        "method": "PUT",
        "url": "CarePlan/careplan2"
      }
    },
    {
      "fullUrl": "ServiceRequest/service4",
      "resource": {
        "id": "service4",
        "meta": {
          "versionId": "5",
          "lastUpdated": "2020-05-06T14:36:44.169-07:00",
          "profile": [
            "http://hl7.org/fhir/us/eLTSS/StructureDefinition/ServiceRequest-eltss"
          ]
        },
        "text": {
          "status": "generated",
          "div": "<div xmlns=\"http://www.w3.org/1999/xhtml\">\n\t\t  \t<p><b>Service Information </b></p>\n\t\t\t<blockquote>\n            <p><b>Name / Code:</b> Therapeutic exercise / 97110</p>\n\t\t\t<p><b>Provider:</b> <a href=\"Practitioner/provider4\"> Practitioner/provider4</a></p>\n            <p><b>Start Date / End Date:</b> 2020-05-01 / 2020-08-01</p>\n\t\t\t</blockquote>\n          </div>"
        },
        "status": "active",
        "intent": "plan",
        "code": {
          "coding": [
            {
              "system": "urn:oid:2.16.840.1.113883.6.12",
              "code": "97110"
            }
          ],
          "text": "therapeutic exercises to improve balance skills"
        },
        "quantityRatio": {
          "numerator": {
            "value": 1,
            "unit": "visit"
          },
          "denominator": {
            "value": 1,
            "unit": "week"
          }
        },
        "subject": {
          "reference": "Patient/patientBSJ1"
        },
        "occurrencePeriod": {
          "start": "2020-05-01",
          "end": "2020-08-01"
        },
        "performer": [
          {
            "reference": "Practitioner/provider4"
          }
        ],
        "supportingInfo": [
          {
            "reference": "Goal/goal1"
          },
          {
            "reference": "Goal/goal2"
          },
          {
            "reference": "Claim/claim3"
          }
        ],
        "resourceType": "ServiceRequest"
      },
      "request": {
        "method": "PUT",
        "url": "ServiceRequest/service4"
      }
    },
    {
      "fullUrl": "Practitioner/provider3",
      "resource": {
        "id": "provider3",
        "meta": {
          "versionId": "3",
          "lastUpdated": "2020-04-28T14:20:16.692-07:00",
          "profile": [
            "http://hl7.org/fhir/us/eLTSS/StructureDefinition/Practitioner-eltss"
          ]
        },
        "text": {
          "status": "generated",
          "div": "<div xmlns=\"http://www.w3.org/1999/xhtml\">\n\t\t\t  <p><b>Provider name, identifier, phone:</b> Lisa Educator, 987654, (210) 555 1213</p>\n\t\t  </div>"
        },
        "identifier": [
          {
            "system": "http://www.acme.org/practitioners",
            "value": "987654"
          }
        ],
        "name": [
          {
            "text": "Lisa Educator",
            "family": "Educator",
            "given": [
              "Lisa"
            ]
          }
        ],
        "telecom": [
          {
            "system": "phone",
            "value": "(210) 555 1213"
          }
        ],
        "resourceType": "Practitioner"
      },
      "request": {
        "method": "PUT",
        "url": "Practitioner/provider3"
      }
    },
    {
      "fullUrl": "CarePlan/careplan1",
      "resource": {
        "id": "careplan1",
        "meta": {
          "versionId": "8",
          "lastUpdated": "2020-05-11T12:04:02.072-07:00",
          "profile": [
            "http://hl7.org/fhir/us/eLTSS/StructureDefinition/CarePlan-eltss"
          ]
        },
        "text": {
          "status": "generated",
          "div": "<div xmlns=\"http://www.w3.org/1999/xhtml\">\n            <p><b>Betsy Smith-Johnson's Services and Supports Plan</b></p>\n            <blockquote>\n\t\t\t\t<p><b>Plan Effective Date:</b> 2020-05-01 - 2020-12-31</p>\n\t\t\t\t<p><b>Steps or Actions to meet Goals:</b> Perform exercises to improve balance skills, Work on mobility to dance at son's upcoming wedding</p>\n\t\t\t</blockquote>\n          </div>"
        },
        "status": "active",
        "intent": "plan",
        "category": [
          {
            "coding": [
              {
                "system": "http://hl7.org/fhir/us/core/CodeSystem/careplan-category",
                "code": "assess-plan"
              }
            ]
          }
        ],
        "title": "Betsy Smith Johnson's Services and Supports Plan",
        "description": "A service and support plan that outlines Betsy's assessed needs, goals, strengths, preferences, and services/providers to meet those needs and goals.",
        "subject": {
          "reference": "Patient/patientBSJ1"
        },
        "period": {
          "start": "2020-05-01",
          "end": "2020-12-31"
        },
        "author": {
          "reference": "Practitioner/planner1"
        },
        "addresses": [
          {
            "reference": "Condition/need1"
          },
          {
            "reference": "Condition/need2"
          },
          {
            "reference": "Condition/need3"
          }
        ],
        "supportingInfo": [
          {
            "reference": "Observation/strength1"
          },
          {
            "reference": "Observation/strength2"
          },
          {
            "reference": "Observation/pref1"
          },
          {
            "reference": "QuestionnaireResponse/questionnaireresponse1"
          },
          {
            "reference": "Contract/contract1"
          },
          {
            "reference": "RiskAssessment/risk1"
          }
        ],
        "goal": [
          {
            "reference": "Goal/goal1"
          },
          {
            "reference": "Goal/goal2"
          }
        ],
        "activity": [
          {
            "detail": {
              "goal": [
                {
                  "reference": "Goal/goal1"
                }
              ],
              "status": "not-started",
              "description": "Perform exercises to improve balance skills"
            }
          },
          {
            "detail": {
              "goal": [
                {
                  "reference": "Goal/goal2"
                }
              ],
              "status": "not-started",
              "description": "Work on mobility to dance at son's upcoming wedding"
            }
          },
          {
            "reference": {
              "reference": "ServiceRequest/service1"
            }
          },
          {
            "reference": {
              "reference": "ServiceRequest/service2"
            }
          },
          {
            "reference": {
              "reference": "ServiceRequest/service3"
            }
          },
          {
            "reference": {
              "reference": "ServiceRequest/service4"
            }
          }
        ],
        "resourceType": "CarePlan"
      },
      "request": {
        "method": "PUT",
        "url": "CarePlan/careplan1"
      }
    },
    {
      "fullUrl": "Contract/contract1",
      "resource": {
        "id": "contract1",
        "meta": {
          "versionId": "3",
          "lastUpdated": "2020-04-28T14:20:16.613-07:00",
          "profile": [
            "http://hl7.org/fhir/us/eLTSS/StructureDefinition/Contract-eltss"
          ]
        },
        "text": {
          "status": "generated",
          "div": "<div xmlns=\"http://www.w3.org/1999/xhtml\">\n\t\t\t<p><b>Plan Signatures</b></p>\n\t\t\t<blockquote>\n\t\t\t\t<p><b>signer type / party</b>: Patient / <a href=\"Patient/patientBSJ1\">Patient/patientBSJ1</a></p>\n\t\t\t\t<p><b>signature</b>: </p>\n\t\t\t</blockquote>\n\t\t\t<blockquote>\n\t\t\t\t<p><b>signer type / party</b>: Guardian / <a href=\"RelatedPerson/guardian1\">RelatedPerson/guardian1</a></p>\n\t\t\t\t<p><b>signature</b>: </p>\n\t\t\t</blockquote>\n\t\t\t<blockquote>\n\t\t\t\t<p><b>signer type / party</b>: Author / <a href=\"Practitioner/planner1\">Practitioner/planner1</a></p>\n\t\t\t\t<p><b>signature</b>: </p>\n\t\t\t</blockquote>\n\t\t\t<blockquote>\n\t\t\t\t<p><b>signer type / party</b>: Co-Author / <a href=\"Practitioner/planner1\">Practitioner/caremgr1</a></p>\n\t\t\t\t<p><b>signature</b>: </p>\n\t\t\t</blockquote>\n\t\t\t<blockquote>\n\t\t\t\t<p><b>signer type / party</b>: Healthcare Provider / <a href=\"RelatedPerson/son1\">RelatedPerson/son1</a></p>\n\t\t\t\t<p><b>signature</b>: </p>\n\t\t\t</blockquote>\n\t\t\t<blockquote>\n\t\t\t\t<p><b>signer type / party</b>: Healthcare Provider / <a href=\"Organization/provider2\">Organization/provider2b</a></p>\n\t\t\t\t<p><b>signature</b>: </p>\n\t\t\t</blockquote>\n\t\t\t<blockquote>\n\t\t\t\t<p><b>signer type / party</b>: Healthcare Provider / <a href=\"Practitioner/provider1\">Practitioner/provider3</a></p>\n\t\t\t\t<p><b>signature</b>: </p>\n\t\t\t</blockquote>\n\t\t\t<blockquote>\n\t\t\t\t<p><b>signer type / party</b>: Healthcare Provider / <a href=\"Practitioner/provider1\">Practitioner/provider4</a></p>\n\t\t\t\t<p><b>signature</b>: </p>\n\t\t\t</blockquote>\n\t\t  </div>"
        },
        "signer": [
          {
            "type": {
              "system": "http://terminology.hl7.org/CodeSystem/contractsignertypecodes",
              "code": "PAT"
            },
            "party": {
              "reference": "Patient/patientBSJ1"
            },
            "signature": [
              {
                "type": [
                  {
                    "system": "urn:iso-astm:E1762-95:2013",
                    "code": "1.2.840.10065.1.12.1.7"
                  }
                ],
                "when": "2020-04-02T03:00:00Z",
                "who": {
                  "reference": "Patient/patientBSJ1"
                },
                "data": ""
              }
            ]
          },
          {
            "type": {
              "system": "http://terminology.hl7.org/CodeSystem/contractsignertypecodes",
              "code": "GUARD"
            },
            "party": {
              "reference": "RelatedPerson/guardian1"
            },
            "signature": [
              {
                "type": [
                  {
                    "system": "urn:iso-astm:E1762-95:2013",
                    "code": "1.2.840.10065.1.12.1.7"
                  }
                ],
                "when": "2020-04-02T03:00:00Z",
                "who": {
                  "reference": "RelatedPerson/guardian1"
                },
                "data": ""
              }
            ]
          },
          {
            "type": {
              "system": "http://terminology.hl7.org/CodeSystem/contractsignertypecodes",
              "code": "AUT"
            },
            "party": {
              "reference": "Practitioner/planner1"
            },
            "signature": [
              {
                "type": [
                  {
                    "system": "urn:iso-astm:E1762-95:2013",
                    "code": "1.2.840.10065.1.12.1.1"
                  }
                ],
                "when": "2020-04-02T03:00:00Z",
                "who": {
                  "reference": "Practitioner/planner1"
                },
                "data": ""
              }
            ]
          },
          {
            "type": {
              "system": "http://terminology.hl7.org/CodeSystem/contractsignertypecodes",
              "code": "COAUTH"
            },
            "party": {
              "reference": "Practitioner/caremgr1"
            },
            "signature": [
              {
                "type": [
                  {
                    "system": "urn:iso-astm:E1762-95:2013",
                    "code": "1.2.840.10065.1.12.1.1"
                  }
                ],
                "when": "2020-04-02T03:00:00Z",
                "who": {
                  "reference": "Practitioner/caremgr1"
                },
                "data": ""
              }
            ]
          },
          {
            "type": {
              "system": "http://terminology.hl7.org/CodeSystem/contractsignertypecodes",
              "code": "HPROV"
            },
            "party": {
              "reference": "Practitioner/provider3"
            },
            "signature": [
              {
                "type": [
                  {
                    "system": "urn:iso-astm:E1762-95:2013",
                    "code": "1.2.840.10065.1.12.1.7"
                  }
                ],
                "when": "2020-04-02T03:00:00Z",
                "who": {
                  "reference": "Practitioner/provider3"
                },
                "data": ""
              }
            ]
          },
          {
            "type": {
              "system": "http://terminology.hl7.org/CodeSystem/contractsignertypecodes",
              "code": "HPROV"
            },
            "party": {
              "reference": "Practitioner/provider2b"
            },
            "signature": [
              {
                "type": [
                  {
                    "system": "urn:iso-astm:E1762-95:2013",
                    "code": "1.2.840.10065.1.12.1.7"
                  }
                ],
                "when": "2020-04-02T03:00:00Z",
                "who": {
                  "reference": "Practitioner/provider2b"
                },
                "data": ""
              }
            ]
          },
          {
            "type": {
              "system": "http://terminology.hl7.org/CodeSystem/contractsignertypecodes",
              "code": "HPROV"
            },
            "party": {
              "reference": "RelatedPerson/son1"
            },
            "signature": [
              {
                "type": [
                  {
                    "system": "urn:iso-astm:E1762-95:2013",
                    "code": "1.2.840.10065.1.12.1.7"
                  }
                ],
                "when": "2020-04-02T03:00:00Z",
                "who": {
                  "reference": "RelatedPerson/son1"
                },
                "data": ""
              }
            ]
          },
          {
            "type": {
              "system": "http://terminology.hl7.org/CodeSystem/contractsignertypecodes",
              "code": "HPROV"
            },
            "party": {
              "reference": "Practitioner/provider4"
            },
            "signature": [
              {
                "type": [
                  {
                    "system": "urn:iso-astm:E1762-95:2013",
                    "code": "1.2.840.10065.1.12.1.7"
                  }
                ],
                "when": "2020-04-02T03:00:00Z",
                "who": {
                  "reference": "Practitioner/provider4"
                },
                "data": ""
              }
            ]
          }
        ],
        "resourceType": "Contract"
      },
      "request": {
        "method": "PUT",
        "url": "Contract/contract1"
      }
    },
    {
      "fullUrl": "Practitioner/planner1",
      "resource": {
        "id": "planner1",
        "meta": {
          "versionId": "3",
          "lastUpdated": "2020-04-28T14:20:16.577-07:00",
          "profile": [
            "http://hl7.org/fhir/us/eLTSS/StructureDefinition/Practitioner-eltss"
          ]
        },
        "text": {
          "status": "generated",
          "div": "<div xmlns=\"http://www.w3.org/1999/xhtml\">\n            <p><b>Support Planner Name / Phone:</b> Mark Planner / (210) 555-1221</p>\n          </div>"
        },
        "identifier": [
          {
            "system": "http://hl7.org.fhir/sid/us-npi",
            "value": "9941339108"
          },
          {
            "system": "http://www.acme.org/practitioners",
            "value": "25456"
          }
        ],
        "name": [
          {
            "text": "Mark Planner",
            "family": "Planner",
            "given": [
              "Mark"
            ]
          }
        ],
        "telecom": [
          {
            "system": "phone",
            "value": "(210) 555 1221"
          }
        ],
        "resourceType": "Practitioner"
      },
      "request": {
        "method": "PUT",
        "url": "Practitioner/planner1"
      }
    },
    {
      "fullUrl": "Condition/need2",
      "resource": {
        "id": "need2",
        "meta": {
          "versionId": "2",
          "lastUpdated": "2020-04-22T14:55:50.119-07:00",
          "profile": [
            "http://hl7.org/fhir/us/eLTSS/StructureDefinition/Condition-eltss"
          ]
        },
        "text": {
          "status": "generated",
          "div": "<div xmlns=\"http://www.w3.org/1999/xhtml\">\n            <p><b>Assessed Need:</b> Needs health / nutrition education for diabetes</p>\n          </div>"
        },
        "clinicalStatus": {
          "coding": [
            {
              "system": "http://terminology.hl7.org/CodeSystem/condition-clinical",
              "code": "active"
            }
          ]
        },
        "verificationStatus": {
          "coding": [
            {
              "system": "http://terminology.hl7.org/CodeSystem/condition-ver-status",
              "code": "confirmed"
            }
          ]
        },
        "category": [
          {
            "coding": [
              {
                "system": "http://hl7.org/fhir/us/eLTSS/CodeSystem/eltss-condition-category-code",
                "code": "assessed-need"
              }
            ]
          }
        ],
        "code": {
          "coding": [
            {
              "system": "http://snomed.info/sct",
              "code": "734920002",
              "display": "Diabetes mellitus education service"
            }
          ],
          "text": "Needs health / nutrition education for diabetes"
        },
        "subject": {
          "reference": "Patient/patientBSJ1"
        },
        "resourceType": "Condition"
      },
      "request": {
        "method": "PUT",
        "url": "Condition/need2"
      }
    },
    {
      "fullUrl": "EpisodeOfCare/episode1",
      "resource": {
        "id": "episode1",
        "meta": {
          "versionId": "3",
          "lastUpdated": "2020-04-28T14:20:16.557-07:00",
          "profile": [
            "http://hl7.org/fhir/us/eLTSS/StructureDefinition/EpisodeOfCare-eltss"
          ]
        },
        "text": {
          "status": "generated",
          "div": "<div xmlns=\"http://www.w3.org/1999/xhtml\">\n\t\t\t<p><b>EpisodeOfCare:</b> links the care plan to the plan monitor/case manager.</p> \n\t\t\t<blockquote>\n\t\t\t<p><b>EpisodeOfCare patient</b>: <a href=\"Patient/patientBSJ1\">Patient/patientBSJ1</a></p>\n\t\t\t<p><b>EpisodeOfCare careManager</b>: <a href=\"Practitioner/caremgr1\">Practitioner/caremgr1</a></p>\n\t\t\t</blockquote>\n\t\t  </div>"
        },
        "status": "active",
        "patient": {
          "reference": "Patient/patientBSJ1"
        },
        "careManager": {
          "reference": "Practitioner/caremgr1"
        },
        "resourceType": "EpisodeOfCare"
      },
      "request": {
        "method": "PUT",
        "url": "EpisodeOfCare/episode1"
      }
    },
    {
      "fullUrl": "Questionnaire/questionnaire1",
      "resource": {
        "id": "questionnaire1",
        "meta": {
          "versionId": "2",
          "lastUpdated": "2020-04-28T14:20:16.630-07:00",
          "profile": [
            "http://hl7.org/fhir/us/eLTSS/StructureDefinition/Questionnaire-eltss"
          ]
        },
        "text": {
          "status": "generated",
          "div": "<div xmlns=\"http://www.w3.org/1999/xhtml\">\n\t\t  <p><b>Person-Centered Planning Questions</b></p>\n\t\t  <blockquote>\n\t\t\t<p><b>Question 1 text / type</b>: Did you choose the setting in which you reside? / boolean</p>\n\t\t\t<p><b>Question 2 text / type</b>: What alternative home and community-based settings were considered? string</p>\n\t\t\t<p><b>Question 3 text / type</b>: Were you given a choice of services outlined in the plan? / boolean</p>\n\t\t  \t<p><b>Question 4 text / type</b>: Did you participate in the selection of services outlined in the plan? / boolean</p>\n\t\t  \t<p><b>Question 5 text / type</b>: Do you agree to the services outlined in the plan? / boolean</p>\n\t\t  \t<p><b>Question 6 text / type</b>: Were you offered a choice of providers for each service? / boolean</p>\n\t\t  \t<p><b>Question 7 text / type</b>: Do you feel you made an informed choice in selecting the provider for each service? / boolean</p>\n\t\t  </blockquote>\t\t\t  \n\t\t  </div>"
        },
        "name": "Questionnaire1",
        "status": "active",
        "item": [
          {
            "linkId": "q1",
            "text": "Did you choose the setting in which you reside?",
            "type": "boolean"
          },
          {
            "linkId": "q2",
            "text": "What alternative home and community-based settings were considered?",
            "type": "string"
          },
          {
            "linkId": "q3",
            "text": "Were you given a choice of services outlined in the plan?",
            "type": "boolean"
          },
          {
            "linkId": "q4",
            "text": "Did you participate in the selection of services outlined in the plan?",
            "type": "boolean"
          },
          {
            "linkId": "q5",
            "text": "Do you agree to the services outlined in the plan?",
            "type": "boolean"
          },
          {
            "linkId": "q6",
            "text": "Were you offered a choice of providers for each service?",
            "type": "boolean"
          },
          {
            "linkId": "q7",
            "text": "Do you feel you made an informed choice in selecting the provider for each service?",
            "type": "boolean"
          }
        ],
        "resourceType": "Questionnaire"
      },
      "request": {
        "method": "PUT",
        "url": "Questionnaire/questionnaire1"
      }
    },
    {
      "fullUrl": "Observation/strength1",
      "resource": {
        "id": "strength1",
        "meta": {
          "versionId": "4",
          "lastUpdated": "2020-04-22T14:55:50.239-07:00",
          "profile": [
            "http://hl7.org/fhir/us/eLTSS/StructureDefinition/Observation-eltss"
          ]
        },
        "text": {
          "status": "generated",
          "div": "<div xmlns=\"http://www.w3.org/1999/xhtml\">\n            <p><b>Person Strength:</b> Able to manage her bills.</p>\n          </div>"
        },
        "status": "final",
        "code": {
          "coding": [
            {
              "system": "http://hl7.org/us/eLTSS/CodeSystem/eltss-observation-code",
              "code": "strength"
            }
          ]
        },
        "subject": {
          "reference": "Patient/patientBSJ1"
        },
        "valueString": "Able to manage her bills.",
        "resourceType": "Observation"
      },
      "request": {
        "method": "PUT",
        "url": "Observation/strength1"
      }
    },
    {
      "fullUrl": "Condition/need3",
      "resource": {
        "id": "need3",
        "meta": {
          "versionId": "2",
          "lastUpdated": "2020-04-28T14:20:16.580-07:00",
          "profile": [
            "http://hl7.org/fhir/us/eLTSS/StructureDefinition/Condition-eltss"
          ]
        },
        "text": {
          "status": "generated",
          "div": "<div xmlns=\"http://www.w3.org/1999/xhtml\">\n            <p><b>Assessed Need:</b> Depression (on treatment)</p>\n          </div>"
        },
        "clinicalStatus": {
          "coding": [
            {
              "system": "http://terminology.hl7.org/CodeSystem/condition-clinical",
              "code": "active"
            }
          ]
        },
        "verificationStatus": {
          "coding": [
            {
              "system": "http://terminology.hl7.org/CodeSystem/condition-ver-status",
              "code": "confirmed"
            }
          ]
        },
        "category": [
          {
            "coding": [
              {
                "system": "http://hl7.org/fhir/us/eLTSS/CodeSystem/eltss-condition-category-code",
                "code": "assessed-need"
              }
            ]
          }
        ],
        "code": {
          "coding": [
            {
              "system": "http://snomed.info/sct",
              "code": "35489007",
              "display": "Depressive disorder (disorder)"
            }
          ],
          "text": "Depression (on treatment)"
        },
        "subject": {
          "reference": "Patient/patientBSJ1"
        },
        "resourceType": "Condition"
      },
      "request": {
        "method": "PUT",
        "url": "Condition/need3"
      }
    },
    {
      "fullUrl": "RiskAssessment/risk1",
      "resource": {
        "id": "risk1",
        "meta": {
          "versionId": "4",
          "lastUpdated": "2020-05-06T14:43:53.300-07:00",
          "profile": [
            "http://hl7.org/fhir/us/eLTSS/StructureDefinition/RiskAssessment-eltss"
          ]
        },
        "text": {
          "status": "generated",
          "div": "<div xmlns=\"http://www.w3.org/1999/xhtml\">\n\t\t\t<p><b>Risk Management Plan </b></p>\n\t\t\t<blockquote>\n\t\t\t<p><b>Risk(s): </b>At risk for falls, depression medication</p>\n\t\t\t<p><b>Subject</b>: <a href=\"Patient/patientBSJ1\">Patient/patientBSJ1</a></p>\n\t\t\t<p><b>Mitigation</b>: Betsy is at risk for falls. Her risk is increased due to her depression medication which may cause drowsiness. She has grab bars installed in the shower and is working on her balance with a trainer.</p>\n\t\t\t</blockquote>\n\t\t  </div>"
        },
        "status": "final",
        "subject": {
          "reference": "Patient/patientBSJ1"
        },
        "prediction": [
          {
            "outcome": {
              "coding": [
                {
                  "system": "http://snomed.info/sct",
                  "code": "129839007"
                }
              ],
              "text": "At risk for falls (finding)"
            }
          },
          {
            "outcome": {
              "coding": [
                {
                  "system": "http://snomed.info/sct",
                  "code": "35489007"
                }
              ],
              "text": "Depressive disorder (disorder)"
            }
          }
        ],
        "mitigation": "Betsy is at risk for falls. Her risk is increased due to her depression medication. She has grab bars installed in the shower and is working on her balance with a trainer.",
        "resourceType": "RiskAssessment"
      },
      "request": {
        "method": "PUT",
        "url": "RiskAssessment/risk1"
      }
    },
    {
      "fullUrl": "Organization/provider2a",
      "resource": {
        "id": "provider2a",
        "meta": {
          "versionId": "2",
          "lastUpdated": "2020-04-28T14:20:16.658-07:00",
          "profile": [
            "http://hl7.org/fhir/us/eLTSS/StructureDefinition/Practitioner-eltss"
          ]
        },
        "text": {
          "status": "generated",
          "div": "<div xmlns=\"http://www.w3.org/1999/xhtml\">\n\t\t\t<p><b>Provider name, identifier, phone, address:</b> The Transporter, Inc., 24680, (210) 555 1313, 111 Business Street, Atlanta GA, 30318</p>\n\t\t  </div>"
        },
        "identifier": [
          {
            "system": "http://www.acme.org/practitioners",
            "value": "24680"
          }
        ],
        "name": "The Transporter, Inc.",
        "telecom": [
          {
            "system": "phone",
            "value": "(210) 555 1313"
          }
        ],
        "address": [
          {
            "text": "111 Business Street, San Antonio, TX 78212"
          }
        ],
        "resourceType": "Organization"
      },
      "request": {
        "method": "PUT",
        "url": "Organization/provider2a"
      }
    },
    {
      "fullUrl": "Organization/funding1",
      "resource": {
        "id": "funding1",
        "meta": {
          "versionId": "2",
          "lastUpdated": "2020-04-22T14:55:50.158-07:00"
        },
        "text": {
          "status": "generated",
          "div": "<div xmlns=\"http://www.w3.org/1999/xhtml\">\n            <p><b>Service Funding Source:</b> Texas Department of Community Health</p>\n          </div>"
        },
        "identifier": [
          {
            "value": "ICWP"
          }
        ],
        "name": "Texas Department of Community Health",
        "address": [
          {
            "text": "7430 Louis Pasteur Dr, San Antonio, TX 78229"
          }
        ],
        "resourceType": "Organization"
      },
      "request": {
        "method": "PUT",
        "url": "Organization/funding1"
      }
    },
    {
      "fullUrl": "RelatedPerson/guardian1",
      "resource": {
        "id": "guardian1",
        "meta": {
          "versionId": "3",
          "lastUpdated": "2020-04-28T14:20:16.685-07:00"
        },
        "text": {
          "status": "generated",
          "div": "<div xmlns=\"http://www.w3.org/1999/xhtml\">\n\t\t\t<p><b>Guardian name: </b> Charles Johnson</p>\n\t\t  </div>"
        },
        "patient": {
          "reference": "Patient/patientBSJ1"
        },
        "relationship": [
          {
            "coding": [
              {
                "system": "http://terminology.hl7.org/CodeSystem/v3-RoleCode",
                "code": "GUARD"
              }
            ]
          }
        ],
        "name": [
          {
            "text": "Charles Johnson",
            "family": "Charles",
            "given": [
              "Johnson"
            ]
          }
        ],
        "resourceType": "RelatedPerson"
      },
      "request": {
        "method": "PUT",
        "url": "RelatedPerson/guardian1"
      }
    },
    {
      "fullUrl": "ServiceRequest/service2",
      "resource": {
        "id": "service2",
        "meta": {
          "versionId": "5",
          "lastUpdated": "2020-05-06T14:16:33.129-07:00",
          "profile": [
            "http://hl7.org/fhir/us/eLTSS/StructureDefinition/ServiceRequest-eltss"
          ]
        },
        "text": {
          "status": "generated",
          "div": "<div xmlns=\"http://www.w3.org/1999/xhtml\">\n\t\t\t<p><b>Service Information</b></p>\n\t\t\t<blockquote>\n            <p><b>Name / Code:</b> Non-emergency transportation; encounter/trip - 2 trips per month - 10 trips total / T2003</p>\n\t\t\t<p><b>Provider:</b> <a href=\"Organization/provider2a\"> Organization/provider2a</a></p>\n            <p><b>Start Date / End Date:</b> 2020-07-01 / 2020-12-31</p>\n\t\t\t</blockquote>\n          </div>"
        },
        "status": "active",
        "intent": "plan",
        "code": {
          "coding": [
            {
              "system": "urn:oid:2.16.840.1.113883.6.14",
              "code": "T2003"
            }
          ],
          "text": "Non-emergency transportation; encounter/trip"
        },
        "quantityRatio": {
          "numerator": {
            "value": 2,
            "unit": "trips"
          },
          "denominator": {
            "value": 1,
            "unit": "month"
          }
        },
        "subject": {
          "reference": "Patient/patientBSJ1"
        },
        "occurrencePeriod": {
          "start": "2020-07-01",
          "end": "2020-12-31"
        },
        "performer": [
          {
            "reference": "Organization/provider2a"
          }
        ],
        "reasonReference": [
          {
            "reference": "Condition/need1"
          }
        ],
        "insurance": [
          {
            "reference": "Coverage/coverage1"
          }
        ],
        "supportingInfo": [
          {
            "reference": "Claim/claim1"
          }
        ],
        "note": [
          {
            "text": "Service provider will provide a reminder the business day before the trip, and will call when on the way."
          }
        ],
        "resourceType": "ServiceRequest"
      },
      "request": {
        "method": "PUT",
        "url": "ServiceRequest/service2"
      }
    },
    {
      "fullUrl": "Goal/goal2",
      "resource": {
        "id": "goal2",
        "meta": {
          "versionId": "2",
          "lastUpdated": "2020-04-22T14:55:50.099-07:00",
          "profile": [
            "http://hl7.org/fhir/us/eLTSS/StructureDefinition/Goal-eltss"
          ]
        },
        "text": {
          "status": "generated",
          "div": "<div xmlns=\"http://www.w3.org/1999/xhtml\">\n            <p><b>Person Goal:</b> Dance at son's upcoming wedding</p>\n          </div>"
        },
        "lifecycleStatus": "accepted",
        "description": {
          "text": "Dance at son's upcoming wedding"
        },
        "subject": {
          "reference": "Patient/patientBSJ1"
        },
        "resourceType": "Goal"
      },
      "request": {
        "method": "PUT",
        "url": "Goal/goal2"
      }
    },
    {
      "fullUrl": "QuestionnaireResponse/questionnaireresponse1",
      "resource": {
        "id": "questionnaireresponse1",
        "meta": {
          "versionId": "5",
          "lastUpdated": "2020-04-28T14:20:16.529-07:00"
        },
        "text": {
          "status": "generated",
          "div": "<div xmlns=\"http://www.w3.org/1999/xhtml\">\n\t\t\t  <p><b>Person-Centered Planning Responses</b></p>\n\t\t\t  <blockquote>\n\t\t\t\t<p><b>Question 1 value: </b> true</p>\n\t\t\t\t<p><b>Question 2 value: </b> Assisted living facility</p>\n\t\t\t\t<p><b>Question 3 value: </b> true</p>\n\t\t\t\t<p><b>Question 4 value: </b> true</p>\n\t\t\t\t<p><b>Question 5 value: </b> true</p>\n\t\t\t\t<p><b>Question 6 value: </b> true</p>\n\t\t\t\t<p><b>Question 7 value: </b> true</p>\n\t\t\t  </blockquote>\t\t  \n\t\t  </div>"
        },
        "questionnaire": "Questionnaire/questionnaire1",
        "status": "completed",
        "subject": {
          "reference": "Patient/patientBSJ1"
        },
        "item": [
          {
            "linkId": "q1",
            "answer": [
              {
                "valueBoolean": true
              }
            ]
          },
          {
            "linkId": "q2",
            "answer": [
              {
                "valueString": "Assisted living facility"
              }
            ]
          },
          {
            "linkId": "q3",
            "answer": [
              {
                "valueBoolean": true
              }
            ]
          },
          {
            "linkId": "q4",
            "answer": [
              {
                "valueBoolean": true
              }
            ]
          },
          {
            "linkId": "q5",
            "answer": [
              {
                "valueBoolean": true
              }
            ]
          },
          {
            "linkId": "q6",
            "answer": [
              {
                "valueBoolean": true
              }
            ]
          },
          {
            "linkId": "q7",
            "answer": [
              {
                "valueBoolean": true
              }
            ]
          }
        ],
        "resourceType": "QuestionnaireResponse"
      },
      "request": {
        "method": "PUT",
        "url": "QuestionnaireResponse/questionnaireresponse1"
      }
    },
    {
      "fullUrl": "Practitioner/provider4",
      "resource": {
        "id": "provider4",
        "meta": {
          "versionId": "3",
          "lastUpdated": "2020-04-28T14:20:16.695-07:00",
          "profile": [
            "http://hl7.org/fhir/us/eLTSS/StructureDefinition/Practitioner-eltss"
          ]
        },
        "text": {
          "status": "generated",
          "div": "<div xmlns=\"http://www.w3.org/1999/xhtml\">\n\t\t\t<p><b>Provider name, identifier, phone:</b> Norma Trainer, 987657, (210) 555 1214</p>\n\t\t  </div>"
        },
        "identifier": [
          {
            "system": "http://www.acme.org/practitioners",
            "value": "987657"
          }
        ],
        "name": [
          {
            "text": "Norma Trainer",
            "family": "Trainer",
            "given": [
              "Norma"
            ]
          }
        ],
        "telecom": [
          {
            "system": "phone",
            "value": "(210) 555 1214"
          }
        ],
        "resourceType": "Practitioner"
      },
      "request": {
        "method": "PUT",
        "url": "Practitioner/provider4"
      }
    },
    {
      "fullUrl": "ServiceRequest/service3",
      "resource": {
        "id": "service3",
        "meta": {
          "versionId": "6",
          "lastUpdated": "2020-05-06T14:36:44.176-07:00",
          "profile": [
            "http://hl7.org/fhir/us/eLTSS/StructureDefinition/ServiceRequest-eltss"
          ]
        },
        "text": {
          "status": "generated",
          "div": "<div xmlns=\"http://www.w3.org/1999/xhtml\">\n\t\t\t<p><b>Service Information </b></p>\n\t\t\t<blockquote>\n            <p><b>Name / Code:</b> Diabetes outpatient self-management training services, individual, per 30 minutes / G0108</p>\n\t\t\t<p><b>Provider:</b> <a href=\"Practitioner/provider3\"> Practitioner/provider3</a></p>\n            <p><b>Start Date / End Date:</b> 2020-05-01 / 2020-08-01</p>\n\t\t\t</blockquote>\n          </div>"
        },
        "status": "active",
        "intent": "plan",
        "code": {
          "coding": [
            {
              "system": "urn:oid:2.16.840.1.113883.6.14",
              "code": "G0108"
            }
          ],
          "text": "Diabetes outpatient self-management training services, individual, per 30 minutes"
        },
        "quantityRatio": {
          "numerator": {
            "value": 1,
            "unit": "visit"
          },
          "denominator": {
            "value": 1,
            "unit": "week"
          }
        },
        "subject": {
          "reference": "Patient/patientBSJ1"
        },
        "occurrencePeriod": {
          "start": "2020-05-01",
          "end": "2020-08-01"
        },
        "performer": [
          {
            "reference": "Practitioner/provider3"
          }
        ],
        "reasonReference": [
          {
            "reference": "Condition/need2"
          }
        ],
        "supportingInfo": [
          {
            "reference": "Claim/claim2"
          }
        ],
        "resourceType": "ServiceRequest"
      },
      "request": {
        "method": "PUT",
        "url": "ServiceRequest/service3"
      }
    },
    {
      "fullUrl": "RelatedPerson/son1",
      "resource": {
        "id": "son1",
        "meta": {
          "versionId": "2",
          "lastUpdated": "2020-04-28T14:20:16.650-07:00"
        },
        "text": {
          "status": "generated",
          "div": "<div xmlns=\"http://www.w3.org/1999/xhtml\">\n\t\t\t<p><b>Non-paid Service Provider name, relationship:</b> Charles Johnson, son</p>\n\t\t  </div>"
        },
        "patient": {
          "reference": "Patient/patientBSJ1"
        },
        "relationship": [
          {
            "coding": [
              {
                "system": "http://terminology.hl7.org/CodeSystem/v3-RoleCode",
                "code": "SONC"
              }
            ]
          }
        ],
        "name": [
          {
            "text": "Charles Johnson",
            "family": "Charles",
            "given": [
              "Johnson"
            ]
          }
        ],
        "resourceType": "RelatedPerson"
      },
      "request": {
        "method": "PUT",
        "url": "RelatedPerson/son1"
      }
    },
    {
      "fullUrl": "Practitioner/caremgr1",
      "resource": {
        "id": "caremgr1",
        "meta": {
          "versionId": "3",
          "lastUpdated": "2020-04-28T14:20:16.602-07:00",
          "profile": [
            "http://hl7.org/fhir/us/eLTSS/StructureDefinition/Practitioner-eltss"
          ]
        },
        "text": {
          "status": "generated",
          "div": "<div xmlns=\"http://www.w3.org/1999/xhtml\">\n            <p><b>Plan Monitor Name / Phone:</b> Sam Monitor / (210) 224-1599</p>\n          </div>"
        },
        "identifier": [
          {
            "system": "http://hl7.org.fhir/sid/us-npi",
            "value": "9941339109"
          },
          {
            "system": "http://www.acme.org/practitioners",
            "value": "25457"
          }
        ],
        "name": [
          {
            "text": "Sam Monitor",
            "family": "Monitor",
            "given": [
              "Sam"
            ]
          }
        ],
        "telecom": [
          {
            "system": "phone",
            "value": "(210) 224 1599"
          }
        ],
        "resourceType": "Practitioner"
      },
      "request": {
        "method": "PUT",
        "url": "Practitioner/caremgr1"
      }
    },
    {
      "fullUrl": "Claim/claim1",
      "resource": {
        "id": "claim1",
        "meta": {
          "versionId": "3",
          "lastUpdated": "2020-04-28T14:20:16.670-07:00",
          "profile": [
            "http://hl7.org/fhir/us/eLTSS/StructureDefinition/Claim-eltss"
          ]
        },
        "text": {
          "status": "generated",
          "div": "<div xmlns=\"http://www.w3.org/1999/xhtml\">\n\t\t\t<p><b>Claim Information</b></p>\n\t\t\t<blockquote>\n\t\t\t<p><b>Patient</b>: <a href=\"Patient/patientBSJ1\">Patient/patientBSJ1</a></p>\n\t\t\t<p><b>Created date</b>: May 1, 2020, 12:00:00 AM</p>\n\t\t\t<p><b>Provider(funding source)</b>: <a href=\"Organization/funding1\">Organization/funding1</a></p>\n\t\t\t<p><b>ProductOrService</b>: T2003 <span style=\"background: LightGoldenRodYellow\">(Details : HCPCS urn:oid:2.16.840.1.113883.6.14 code 'T2003' = 'Non-emergency transportation; encounter/trip')</span></p>\n\t\t\t<p><b>UnitPrice</b>: $60</p>\n\t\t\t<p><b>Net</b>: $600</p>\n\t\t\t</blockquote>\n\t\t  </div>"
        },
        "status": "active",
        "type": {
          "coding": [
            {
              "system": "http://terminology.hl7.org/CodeSystem/claim-type",
              "code": "professional"
            }
          ]
        },
        "use": "claim",
        "patient": {
          "reference": "Patient/patientBSJ1"
        },
        "created": "2020-05-01",
        "provider": {
          "reference": "Organization/funding1"
        },
        "priority": {
          "coding": [
            {
              "system": "http://terminology.hl7.org/CodeSystem/processpriority",
              "code": "normal"
            }
          ]
        },
        "insurance": [
          {
            "sequence": 1,
            "focal": true,
            "coverage": {
              "reference": "Coverage/coverage1"
            }
          }
        ],
        "item": [
          {
            "sequence": 1,
            "productOrService": {
              "coding": [
                {
                  "system": "urn:oid:2.16.840.1.113883.6.14",
                  "code": "T2003"
                }
              ]
            },
            "unitPrice": {
              "value": 60.0
            },
            "net": {
              "value": 600.0
            }
          }
        ],
        "resourceType": "Claim"
      },
      "request": {
        "method": "PUT",
        "url": "Claim/claim1"
      }
    }
  ],
  "resourceType": "Bundle"
}