{
  "type": "transaction",
  "entry": [
    {
      "fullUrl": "Encounter/RTST-Encounter-SNF-Stay",
      "resource": {
        "id": "RTST-Encounter-SNF-Stay",
        "meta": {
          "profile": [
            "http://hl7.org/fhir/us/core/StructureDefinition/us-core-encounter"
          ]
        },
        "status": "finished",
        "class": {
          "system": "http://hl7.org/fhir/us/pacio-rt/CodeSystem/timepoint-class-cs",
          "code": "SNF",
          "display": "skilled nursing facility"
        },
        "type": [
          {
            "coding": [
              {
                "system": "http://snomed.info/sct",
                "code": "185347001",
                "display": "Encounter for problem (procedure)"
              }
            ]
          }
        ],
        "subject": {
          "reference": "Patient/RTST-patientBSJ1"
        },
        "basedOn": [
          {
            "reference": "ServiceRequest/RTST-SR-Test"
          }
        ],
        "period": {
          "start": "2020-01-01T15:00:00-05:00",
          "end": "2020-02-10T10:30:00-05:00"
        },
        "resourceType": "Encounter"
      },
      "request": {
        "method": "PUT",
        "url": "Encounter/RTST-Encounter-SNF-Stay"
      }
    },
    {
      "fullUrl": "Patient/RTST-patientBSJ1",
      "resource": {
        "id": "RTST-patientBSJ1",
        "meta": {
          "profile": [
            "http://hl7.org/fhir/us/core/StructureDefinition/us-core-patient"
          ]
        },
        "identifier": [
          {
            "system": "http://example.org/identifiers/patient",
            "value": "RT-10A3D58WH1600"
          }
        ],
        "active": true,
        "name": [
          {
            "text": "Betsy RT Smith-Johnson",
            "family": "Smith-Johnson",
            "given": [
              "Betsy",
              "RT"
            ]
          }
        ],
        "telecom": [
          {
            "system": "phone",
            "value": "210-222-1111",
            "use": "mobile"
          }
        ],
        "gender": "female",
        "birthDate": "1950-11-01",
        "address": [
          {
            "text": "111 Maple Ct, San Antonio, TX 78212"
          }
        ],
        "maritalStatus": {
          "coding": [
            {
              "system": "http://terminology.hl7.org/CodeSystem/v3-MaritalStatus",
              "code": "U"
            }
          ]
        },
        "contact": [
          {
            "relationship": [
              {
                "coding": [
                  {
                    "system": "http://terminology.hl7.org/CodeSystem/v3-RoleCode",
                    "code": "SONC"
                  }
                ]
              },
              {
                "coding": [
                  {
                    "system": "http://terminology.hl7.org/CodeSystem/v2-0131",
                    "code": "C"
                  }
                ]
              },
              {
                "coding": [
                  {
                    "system": "http://terminology.hl7.org/CodeSystem/v3-RoleCode",
                    "code": "GUARD"
                  }
                ]
              }
            ],
            "name": {
              "text": "Charles Johnson"
            },
            "telecom": [
              {
                "system": "phone",
                "value": "(210) 222-3333"
              }
            ],
            "address": {
              "text": "100 Montana St., San Antonio, TX 78203"
            }
          },
          {
            "relationship": [
              {
                "coding": [
                  {
                    "system": "http://terminology.hl7.org/CodeSystem/v3-RoleCode",
                    "code": "DAUC"
                  }
                ]
              }
            ],
            "name": {
              "text": "Debra Johnson"
            },
            "telecom": [
              {
                "system": "phone",
                "value": "(410) 444-5555"
              }
            ],
            "address": {
              "text": "333 W. Camden St., Baltimore, MD 21201"
            }
          }
        ],
        "communication": [
          {
            "language": {
              "coding": [
                {
                  "system": "urn:ietf:bcp:47",
                  "code": "en"
                }
              ]
            },
            "preferred": true
          }
        ],
        "resourceType": "Patient"
      },
      "request": {
        "method": "PUT",
        "url": "Patient/RTST-patientBSJ1"
      }
    },
    {
      "fullUrl": "ServiceRequest/RTST-SR-Test",
      "resource": {
        "id": "RTST-SR-Test",
        "meta": {
          "profile": [
            "http://hl7.org/fhir/us/eLTSS/StructureDefinition/ServiceRequest-eltss"
          ]
        },
        "extension": [
          {
            "url": "http://hl7.org/fhir/us/eLTSS/StructureDefinition/eltss-directedBy",
            "valueCodeableConcept": {
              "text": "self"
            }
          }
        ],
        "status": "active",
        "intent": "plan",
        "code": {
          "coding": [
            {
              "system": "urn:oid:2.16.840.1.113883.6.14",
              "code": "E0241"
            }
          ],
          "text": "Bath tub wall rail, each"
        },
        "quantityQuantity": {
          "value": 1,
          "unit": "install"
        },
        "subject": {
          "reference": "Patient/RTST-patientBSJ1"
        },
        "occurrencePeriod": {
          "start": "2020-05-01",
          "end": "2020-12-31"
        },
        "resourceType": "ServiceRequest"
      },
      "request": {
        "method": "PUT",
        "url": "ServiceRequest/RTST-SR-Test"
      }
    }
  ],
  "resourceType": "Bundle"
}