{
  "resourceType": "Bundle",
  "id": "b4b821d4-0191-4933-8bf8-052b8610d801",
  "meta": {
    "versionId": "1",
    "lastUpdated": "2022-04-26T16:55:29.000+00:00",
    "source": "#v3fjcUyoEovwPYpw"
  },
  "type": "document",
  "entry": [ {
    "resource": {
      "resourceType": "Composition",
      "id": "4bf09b11-7e6c-4804-a312-8681f919644d",
      "identifier": {
        "system": "urn:oid:2.16.840.1.113883.3.3208.101.2.8.1",
        "value": "5367-047e62ccf09d4b39a8add708a69b7f38-1"
      },
      "status": "final",
      "type": {
        "coding": [ {
          "system": "urn:oid:2.16.840.1.113883.7.1",
          "code": "86533-7",
          "display": "Living Will"
        } ]
      },
      "category": [ {
        "coding": [ {
          "system": "http://loinc.org",
          "code": "42348-3",
          "display": "Advance directives"
        } ]
      } ],
      "subject": {
        "reference": "Patient/3e0a479f-375c-46ba-857b-9ed4cca7db9f",
        "display": "Smith-Johnson, Betsy"
      },
      "date": "2015-11-05T15:52:20+00:00",
      "author": [ {
        "reference": "Patient/3e0a479f-375c-46ba-857b-9ed4cca7db9f",
        "display": "Smith-Johnson, Betsy"
      }, {
        "reference": "Device/5f64aaab-3232-4d26-a847-62c7e15a5cf6",
        "display": "ADVault RR Portal"
      } ],
      "title": "Betsy's Living Will (Texas)",
      "confidentiality": "N",
      "custodian": {
        "reference": "Organization/46e1f46a-f9d1-4c95-9ea5-ca72c3922d6c"
      }
    }
  }, {
    "resource": {
      "resourceType": "Patient",
      "id": "3e0a479f-375c-46ba-857b-9ed4cca7db9f",
      "text": {
        "status": "generated",
        "div": "<div xmlns=\"http://www.w3.org/1999/xhtml\"><div class=\"hapiHeaderText\">Betsy <b>SMITH-JOHNSON </b></div><table class=\"hapiPropertyTable\"><tbody><tr><td>Identifier</td><td>87f37989294a408897aacd1fc5d8fd16</td></tr><tr><td>Address</td><td><span>111 Maple Court </span><br/><span>San Antonio </span><span>TX </span><span>US </span></td></tr><tr><td>Date of birth</td><td><span>15 November 1950</span></td></tr></tbody></table></div>"
      },
      "identifier": [ {
        "system": "urn:oid:2.16.840.1.113883.4.823.1",
        "value": "87f37989294a408897aacd1fc5d8fd16"
      } ],
      "name": [ {
        "use": "usual",
        "family": "Smith-Johnson",
        "given": [ "Betsy" ]
      } ],
      "telecom": [ {
        "system": "email",
        "value": "advault.test54@jettelabs.com",
        "use": "home"
      } ],
      "gender": "female",
      "birthDate": "1950-11-15",
      "address": [ {
        "use": "home",
        "line": [ "111 Maple Court" ],
        "city": "San Antonio",
        "state": "TX",
        "postalCode": "78212",
        "country": "US"
      } ],
      "communication": [ {
        "language": {
          "coding": [ {
            "code": "eng"
          } ]
        }
      } ]
    }
  }, {
    "resource": {
      "resourceType": "Organization",
      "id": "46e1f46a-f9d1-4c95-9ea5-ca72c3922d6c",
      "identifier": [ {
        "system": "urn:oid:1.3.6.1.4.1.42424242.4.99930.4",
        "value": "12c5dcee5089494ca1ca0cb428ed3fff"
      } ],
      "name": "ADVault, Inc.",
      "telecom": [ {
        "system": "phone",
        "value": "+1(202)776-7700",
        "use": "work"
      } ],
      "address": [ {
        "use": "work",
        "line": [ "740 E. Campbell Rd.", "STE 825" ],
        "city": "Richardson",
        "state": "TX",
        "postalCode": "75081",
        "country": "US"
      } ],
      "endpoint": [ {
        "reference": "Endpoint/1d3c7902-a93f-4e7d-b1d0-a52dbee7ec0d"
      } ]
    }
  }, {
    "resource": {
      "resourceType": "Device",
      "id": "5f64aaab-3232-4d26-a847-62c7e15a5cf6",
      "identifier": [ {
        "system": "urn:oid:2.16.840.1.113883.4.6",
        "value": "ed6f4f50c6cb47dd89cb5d8f3007ecb0"
      } ],
      "modelNumber": "ADVault RR Portal",
      "version": [ {
        "value": "1.0"
      } ],
      "owner": {
        "reference": "Organization/46e1f46a-f9d1-4c95-9ea5-ca72c3922d6c",
        "display": "ADVault, Inc."
      }
    }
  } ]
}