{
  "resourceType": "Bundle",
  "id": "Smith-Johnson-Bundle",
  "type": "document",
  "timestamp": "2024-05-10T14:25:34.001-05:00",
  "entry": [
    {
      "fullUrl": "https://gw.interop.community/MiHIN/open/Composition/BSJ-TOCComposition",
      "resource": {
        "resourceType": "Composition",
        "id": "BSJ-TOCComposition",
        "meta": {
          "profile": [
            "http://hl7.org/fhir/us/pacio-toc/StructureDefinition/TOC-Composition"
          ]
        },
        "language": "en-US",
        "text": {
          "status": "generated",
          "div": "<div xmlns=\"http://www.w3.org/1999/xhtml\" xml:lang=\"en-US\" lang=\"en-US\"><a name=\"Composition_BSJ-TOCComposition\"> </a><p><b>Generated Narrative: Composition</b><a name=\"BSJ-TOCComposition\"> </a><a name=\"hcBSJ-TOCComposition\"> </a></p><div style=\"display: inline-block; background-color: #d9e0e7; padding: 6px; margin: 4px; border: 1px solid #8da1b4; border-radius: 5px; line-height: 60%\"><p style=\"margin-bottom: 0px\">ResourceComposition &quot;BSJ-TOCComposition&quot;  (Language &quot;en-US&quot;) </p><p style=\"margin-bottom: 0px\">Profile: <a href=\"StructureDefinition-TOC-Composition.html\">Transition of Care Composition</a></p></div><p><b>identifier</b>: <code>urn:oid:2.16.840.1.113883.4.823.1.7125</code>/20130607100315-CCDA-CCD</p><p><b>status</b>: final</p><p><b>type</b>: Discharge summary - recommended C-CDA R2.1 sections <span style=\"background: LightGoldenRodYellow; margin: 4px; border: 1px solid khaki\"> (<a href=\"https://loinc.org/\">LOINC</a>#81218-0)</span></p><p><b>date</b>: 2024-05-10 08:49:58-0400</p><p><b>author</b>: See on this page: Practitioner/Example-JenCadbury</p><p><b>title</b>: Transitions of Care Document for Betsy Smith-Johnson</p><p><b>custodian</b>: See on this page: Organization/org-SNF-Happy-Nursing-Facility</p></div>"
        },
        "identifier": {
          "system": "urn:oid:2.16.840.1.113883.4.823.1.7125",
          "value": "20130607100315-CCDA-CCD"
        },
        "status": "final",
        "type": {
          "coding": [
            {
              "system": "http://loinc.org",
              "code": "81218-0",
              "display": "Discharge summary - recommended C-CDA R2.1 sections"
            }
          ]
        },
        "subject": {
          "reference": "Patient/patientBSJ1"
        },
        "date": "2024-05-10T08:49:58.313-04:00",
        "author": [
          {
            "reference": "Practitioner/Example-JenCadbury"
          }
        ],
        "title": "Transitions of Care Document for Betsy Smith-Johnson",
        "custodian": {
          "reference": "Organization/org-SNF-Happy-Nursing-Facility"
        },
        "section": [
          {
            "text": {
              "status": "additional",
              "div": "<div xmlns=\"http://www.w3.org/1999/xhtml\">Information sections for the transitions of care for Betsy Smith-Johnson</div>"
            }
          },
          {
            "title": "List of allergies for Betsy Smith-Johnson",
            "code": {
              "coding": [
                {
                  "system": "http://loinc.org",
                  "code": "48765-2"
                }
              ]
            },
            "text": {
              "status": "additional",
              "div": "<div xmlns=\"http://www.w3.org/1999/xhtml\">Allergies for Betsy Smith-Johnson</div>"
            },
            "entry": [
              {
                "reference": "AllergyIntolerance/BSJ-AllergyACE"
              }
            ]
          },
          {
            "title": "Functional status of Betsy Smith-Johnson",
            "code": {
              "coding": [
                {
                  "system": "http://loinc.org",
                  "code": "54522-8"
                }
              ]
            },
            "text": {
              "status": "additional",
              "div": "<div xmlns=\"http://www.w3.org/1999/xhtml\">Functional status of Betsy Smith-Johnson</div>"
            },
            "entry": [
              {
                "reference": "Observation/BSJ-MDS-Activities-PT1"
              },
              {
                "reference": "Observation/BSJ-MDS-Doffing1"
              },
              {
                "reference": "Observation/BSJ-MDS-Donning1"
              },
              {
                "reference": "Observation/BSJ-MDS-Mobility-PT1"
              },
              {
                "reference": "Observation/BSJ-MDS-ShortWalk1"
              },
              {
                "reference": "Observation/BSJ-MDS-SitStand1"
              },
              {
                "reference": "Observation/BSJ-MDS-SitUp1"
              }
            ]
          },
          {
            "title": "List of medications prescribed for Betsy Smith-Johnson",
            "code": {
              "coding": [
                {
                  "system": "http://loinc.org",
                  "code": "52471-0"
                }
              ]
            },
            "text": {
              "status": "additional",
              "div": "<div xmlns=\"http://www.w3.org/1999/xhtml\">List of medications prescribed for Betsy Smith-Johnson</div>"
            }
          },
          {
            "title": "Discharge care plan for Betsy Smith-Johnson",
            "code": {
              "coding": [
                {
                  "system": "http://loinc.org",
                  "code": "74449-0"
                }
              ]
            },
            "text": {
              "status": "additional",
              "div": "<div xmlns=\"http://www.w3.org/1999/xhtml\">Discharge care plan for Betsy Smith-Johnson</div>"
            },
            "entry": [
              {
                "reference": "CarePlan/BSJ-SNFDischargeCarePlan"
              }
            ]
          },
          {
            "title": "List of problem conditions and observations for Betsy Smith-Johnson",
            "code": {
              "coding": [
                {
                  "system": "http://loinc.org",
                  "code": "18776-5"
                }
              ]
            },
            "text": {
              "status": "additional",
              "div": "<div xmlns=\"http://www.w3.org/1999/xhtml\">List of problem conditions and observations for Betsy Smith-Johnson</div>"
            },
            "entry": [
              {
                "reference": "Condition/BSJ-AnemiaDiagnosis"
              },
              {
                "reference": "Condition/BSJ-Constipation"
              },
              {
                "reference": "Condition/BSJ-DepressionDiagnosis"
              },
              {
                "reference": "Condition/BSJ-DiabetesDiagnosis"
              },
              {
                "reference": "Condition/BSJ-DressingConcern"
              },
              {
                "reference": "Condition/BSJ-HeartDiseaseDiagnosis"
              },
              {
                "reference": "Condition/BSJ-HemiparesisDiagnosis"
              },
              {
                "reference": "Condition/BSJ-Hyperlipidemia"
              },
              {
                "reference": "Condition/BSJ-HypertensionDiagnosis"
              },
              {
                "reference": "Condition/BSJ-KidneyDisease"
              },
              {
                "reference": "Condition/BSJ-NauseaAndVomiting"
              },
              {
                "reference": "Condition/BSJ-Neuropathy"
              },
              {
                "reference": "Condition/BSJ-StrokeDiagnosis"
              },
              {
                "reference": "Condition/BSJ-UndressingConcern"
              },
              {
                "reference": "Condition/OT-ProblemList-Decondition"
              },
              {
                "reference": "Condition/OT-ProblemList-RightWeak"
              }
            ]
          },
          {
            "title": "List of test results for Betsy Smith-Johnson",
            "code": {
              "coding": [
                {
                  "system": "http://loinc.org",
                  "code": "19146-0"
                }
              ]
            },
            "text": {
              "status": "additional",
              "div": "<div xmlns=\"http://www.w3.org/1999/xhtml\">List of test results for Betsy Smith-Johnson</div>"
            }
          }
        ]
      }
    },
    {
      "fullUrl": "https://gw.interop.community/MiHIN/open/Patient/patientBSJ1",
      "resource": {
        "resourceType": "Patient",
        "id": "patientBSJ1",
        "meta": {
          "lastUpdated": "2021-03-29T14:25:34.001-05:00",
          "profile": [
            "http://hl7.org/fhir/us/core/StructureDefinition/us-core-patient"
          ]
        },
        "language": "en-US",
        "text": {
          "status": "extensions",
          "div": "<div xmlns=\"http://www.w3.org/1999/xhtml\" xml:lang=\"en-US\" lang=\"en-US\"><a name=\"Patient_patientBSJ1\"> </a><p><b>Generated Narrative: Patient</b><a name=\"patientBSJ1\"> </a><a name=\"hcpatientBSJ1\"> </a></p><div style=\"display: inline-block; background-color: #d9e0e7; padding: 6px; margin: 4px; border: 1px solid #8da1b4; border-radius: 5px; line-height: 60%\"><p style=\"margin-bottom: 0px\">ResourcePatient &quot;patientBSJ1&quot; Updated &quot;2021-03-29 14:25:34-0500&quot;  (Language &quot;en-US&quot;) </p><p style=\"margin-bottom: 0px\">Profile: <a href=\"http://hl7.org/fhir/us/core/STU6.1/StructureDefinition-us-core-patient.html\">US Core Patient Profile</a></p></div><blockquote><p><b>US Core Race Extension</b></p><blockquote><p><b>url</b></p><code>ombCategory</code></blockquote><p><b>value</b>: White (Details: Race &amp; Ethnicity - CDC code 2106-3 = 'White', stated as 'White')</p><blockquote><p><b>url</b></p><code>text</code></blockquote><p><b>value</b>: White</p></blockquote><p><b>identifier</b>: Medical Record Number/1032702\u00a0(use:\u00a0usual), <a href=\"http://terminology.hl7.org/5.0.0/NamingSystem-medicareHIC.html\" title=\"Medicare Health Insurance Claim # (HIC) is a unique identifier of a beneficiary used for Medicare entitlement and billing purposes. Medicare Numbers (HIC or HICN) are represented without any spaces or dashes.\">MedicareHIC</a>/10A3D58WH1600</p><p><b>active</b>: true</p><p><b>name</b>: Smith-Johnson, Betsy</p><p><b>telecom</b>: ph: 555-555-5555(HOME), ph: (410) 444-5555</p><p><b>gender</b>: female</p><p><b>birthDate</b>: 1958-11-01</p><p><b>address</b>: 111 Maple Ct, Grand Rapids, MI 49503</p><p><b>maritalStatus</b>: unknown <span style=\"background: LightGoldenRodYellow; margin: 4px; border: 1px solid khaki\"> (<a href=\"http://terminology.hl7.org/5.4.0/CodeSystem-v3-NullFlavor.html\">NullFlavor</a>#UNK)</span></p><blockquote><p><b>contact</b></p><p><b>relationship</b>: son <span style=\"background: LightGoldenRodYellow; margin: 4px; border: 1px solid khaki\"> (<a href=\"http://terminology.hl7.org/5.4.0/CodeSystem-v3-RoleCode.html\">RoleCode</a>#SONC)</span></p><p><b>name</b>: Charles Johnson</p><p><b>telecom</b>: ph: (210) 222-3333</p><p><b>address</b>: 111 Maple Ct, Grand Rapids, MI 49503</p></blockquote><blockquote><p><b>contact</b></p><p><b>relationship</b>: daughter <span style=\"background: LightGoldenRodYellow; margin: 4px; border: 1px solid khaki\"> (<a href=\"http://terminology.hl7.org/5.4.0/CodeSystem-v3-RoleCode.html\">RoleCode</a>#DAUC)</span></p><p><b>name</b>: Debra Johnson</p><p><b>telecom</b>: ph: (410) 444-5555</p><p><b>address</b>: 333 W. Camden St., Baltimore, MD 21201</p></blockquote><h3>Communications</h3><table class=\"grid\"><tr><td style=\"display: none\">-</td><td><b>Language</b></td><td><b>Preferred</b></td></tr><tr><td style=\"display: none\">*</td><td>English <span style=\"background: LightGoldenRodYellow; margin: 4px; border: 1px solid khaki\"> (<a href=\"http://terminology.hl7.org/5.0.0/CodeSystem-v3-ietf3066.html\">Tags for the Identification of Languages</a>#en)</span></td><td>true</td></tr></table></div>"
        },
        "extension": [
          {
            "extension": [
              {
                "url": "ombCategory",
                "valueCoding": {
                  "system": "urn:oid:2.16.840.1.113883.6.238",
                  "code": "2106-3",
                  "display": "White"
                }
              },
              {
                "url": "text",
                "valueString": "White"
              }
            ],
            "url": "http://hl7.org/fhir/us/core/StructureDefinition/us-core-race"
          }
        ],
        "identifier": [
          {
            "use": "usual",
            "type": {
              "coding": [
                {
                  "system": "http://terminology.hl7.org/CodeSystem/v2-0203",
                  "code": "MR",
                  "display": "Medical Record Number"
                }
              ],
              "text": "Medical Record Number"
            },
            "system": "http://hospital.smarthealthit.org",
            "value": "1032702"
          },
          {
            "system": "http://hl7.org/fhir/sid/us-medicare",
            "value": "10A3D58WH1600"
          }
        ],
        "active": true,
        "name": [
          {
            "use": "usual",
            "text": "Smith-Johnson, Betsy",
            "family": "Smith-Johnson",
            "given": [
              "Betsy"
            ]
          }
        ],
        "telecom": [
          {
            "system": "phone",
            "value": "555-555-5555",
            "use": "home"
          },
          {
            "system": "phone",
            "value": "(410) 444-5555"
          }
        ],
        "gender": "female",
        "birthDate": "1958-11-01",
        "address": [
          {
            "text": "111 Maple Ct, Grand Rapids, MI 49503",
            "line": [
              "111 Maple Ct"
            ],
            "city": "Grand Rapids",
            "state": "MI",
            "postalCode": "49503",
            "country": "US",
            "period": {
              "start": "2016-12-06"
            }
          }
        ],
        "maritalStatus": {
          "coding": [
            {
              "system": "http://terminology.hl7.org/CodeSystem/v3-NullFlavor",
              "code": "UNK"
            }
          ]
        },
        "contact": [
          {
            "relationship": [
              {
                "coding": [
                  {
                    "system": "http://terminology.hl7.org/CodeSystem/v3-RoleCode",
                    "code": "SONC"
                  }
                ]
              }
            ],
            "name": {
              "text": "Charles Johnson"
            },
            "telecom": [
              {
                "system": "phone",
                "value": "(210) 222-3333"
              }
            ],
            "address": {
              "text": "111 Maple Ct, Grand Rapids, MI 49503"
            }
          },
          {
            "relationship": [
              {
                "coding": [
                  {
                    "system": "http://terminology.hl7.org/CodeSystem/v3-RoleCode",
                    "code": "DAUC"
                  }
                ]
              }
            ],
            "name": {
              "text": "Debra Johnson"
            },
            "telecom": [
              {
                "system": "phone",
                "value": "(410) 444-5555"
              }
            ],
            "address": {
              "text": "333 W. Camden St., Baltimore, MD 21201"
            }
          }
        ],
        "communication": [
          {
            "language": {
              "coding": [
                {
                  "system": "urn:ietf:bcp:47",
                  "code": "en",
                  "display": "English"
                }
              ]
            },
            "preferred": true
          }
        ]
      }
    },
    {
      "fullUrl": "https://gw.interop.community/MiHIN/open/AllergyIntolerance/BSJ-AllergyACE",
      "resource": {
        "resourceType": "AllergyIntolerance",
        "id": "BSJ-AllergyACE",
        "meta": {
          "profile": [
            "http://hl7.org/fhir/us/core/StructureDefinition/us-core-allergyintolerance"
          ]
        },
        "text": {
          "status": "generated",
          "div": "<div xmlns=\"http://www.w3.org/1999/xhtml\"><a name=\"AllergyIntolerance_BSJ-AllergyACE\"> </a><p><b>Generated Narrative: AllergyIntolerance</b><a name=\"BSJ-AllergyACE\"> </a><a name=\"hcBSJ-AllergyACE\"> </a></p><div style=\"display: inline-block; background-color: #d9e0e7; padding: 6px; margin: 4px; border: 1px solid #8da1b4; border-radius: 5px; line-height: 60%\"><p style=\"margin-bottom: 0px\">ResourceAllergyIntolerance &quot;BSJ-AllergyACE&quot; </p><p style=\"margin-bottom: 0px\">Profile: <a href=\"http://hl7.org/fhir/us/core/STU6.1/StructureDefinition-us-core-allergyintolerance.html\">US Core AllergyIntolerance Profile</a></p></div><p><b>clinicalStatus</b>: Active <span style=\"background: LightGoldenRodYellow; margin: 4px; border: 1px solid khaki\"> (<a href=\"http://terminology.hl7.org/5.4.0/CodeSystem-allergyintolerance-clinical.html\">AllergyIntolerance Clinical Status Codes</a>#active)</span></p><p><b>verificationStatus</b>: Confirmed <span style=\"background: LightGoldenRodYellow; margin: 4px; border: 1px solid khaki\"> (<a href=\"http://terminology.hl7.org/5.4.0/CodeSystem-allergyintolerance-verification.html\">AllergyIntolerance Verification Status</a>#confirmed)</span></p><p><b>category</b>: medication</p><p><b>criticality</b>: high</p><p><b>code</b>: Substance with angiotensin-converting enzyme inhibitor mechanism of action (substance) <span style=\"background: LightGoldenRodYellow; margin: 4px; border: 1px solid khaki\"> (<a href=\"https://browser.ihtsdotools.org/\">SNOWMED CT</a>#372733002)</span></p><p><b>patient</b>: See on this page: Patient/patientBSJ1</p><p><b>asserter</b>: See on this page: Patient/patientBSJ1</p><p><b>lastOccurrence</b>: 2011-10</p><h3>Reactions</h3><table class=\"grid\"><tr><td style=\"display: none\">-</td><td><b>Substance</b></td><td><b>Manifestation</b></td></tr><tr><td style=\"display: none\">*</td><td>captopril 12.5 MG Oral Tablet <span style=\"background: LightGoldenRodYellow; margin: 4px; border: 1px solid khaki\"> (<a href=\"http://terminology.hl7.org/5.0.0/CodeSystem-v3-rxNorm.html\">RxNorm</a>#308963)</span></td><td>Hyperkalemia caused by angiotensin-converting enzyme inhibitor (disorder) <span style=\"background: LightGoldenRodYellow; margin: 4px; border: 1px solid khaki\"> (<a href=\"https://browser.ihtsdotools.org/\">SNOWMED CT</a>#427195008)</span></td></tr></table></div>"
        },
        "clinicalStatus": {
          "coding": [
            {
              "system": "http://terminology.hl7.org/CodeSystem/allergyintolerance-clinical",
              "code": "active"
            }
          ]
        },
        "verificationStatus": {
          "coding": [
            {
              "system": "http://terminology.hl7.org/CodeSystem/allergyintolerance-verification",
              "code": "confirmed"
            }
          ]
        },
        "category": [
          "medication"
        ],
        "criticality": "high",
        "code": {
          "coding": [
            {
              "system": "http://snomed.info/sct",
              "code": "372733002",
              "display": "Substance with angiotensin-converting enzyme inhibitor mechanism of action (substance)"
            }
          ]
        },
        "patient": {
          "reference": "Patient/patientBSJ1"
        },
        "asserter": {
          "reference": "Patient/patientBSJ1"
        },
        "lastOccurrence": "2011-10",
        "reaction": [
          {
            "substance": {
              "coding": [
                {
                  "system": "http://www.nlm.nih.gov/research/umls/rxnorm",
                  "code": "308963",
                  "display": "captopril 12.5 MG Oral Tablet"
                }
              ]
            },
            "manifestation": [
              {
                "coding": [
                  {
                    "system": "http://snomed.info/sct",
                    "code": "427195008",
                    "display": "Hyperkalemia caused by angiotensin-converting enzyme inhibitor (disorder)"
                  }
                ]
              }
            ]
          }
        ]
      }
    },
    {
      "fullUrl": "https://gw.interop.community/MiHIN/open/Condition/BSJ-AnemiaDiagnosis",
      "resource": {
        "resourceType": "Condition",
        "id": "BSJ-AnemiaDiagnosis",
        "meta": {
          "profile": [
            "http://hl7.org/fhir/us/core/StructureDefinition/us-core-condition-encounter-diagnosis"
          ]
        },
        "text": {
          "status": "extensions",
          "div": "<div xmlns=\"http://www.w3.org/1999/xhtml\"><a name=\"Condition_BSJ-AnemiaDiagnosis\"> </a><p><b>Generated Narrative: Condition</b><a name=\"BSJ-AnemiaDiagnosis\"> </a><a name=\"hcBSJ-AnemiaDiagnosis\"> </a></p><div style=\"display: inline-block; background-color: #d9e0e7; padding: 6px; margin: 4px; border: 1px solid #8da1b4; border-radius: 5px; line-height: 60%\"><p style=\"margin-bottom: 0px\">ResourceCondition &quot;BSJ-AnemiaDiagnosis&quot; </p><p style=\"margin-bottom: 0px\">Profile: <a href=\"http://hl7.org/fhir/us/core/STU6.1/StructureDefinition-us-core-condition-encounter-diagnosis.html\">US Core Condition Encounter Diagnosis Profile</a></p></div><p><b>Condition Asserted Date</b>: 2024-04-23 13:15:00-0400</p><p><b>clinicalStatus</b>: Active <span style=\"background: LightGoldenRodYellow; margin: 4px; border: 1px solid khaki\"> (<a href=\"http://terminology.hl7.org/5.4.0/CodeSystem-condition-clinical.html\">Condition Clinical Status Codes</a>#active)</span></p><p><b>verificationStatus</b>: Confirmed <span style=\"background: LightGoldenRodYellow; margin: 4px; border: 1px solid khaki\"> (<a href=\"http://terminology.hl7.org/5.4.0/CodeSystem-condition-ver-status.html\">ConditionVerificationStatus</a>#confirmed)</span></p><p><b>category</b>: Functions related to the digestive system, other specified and unspecified <span style=\"background: LightGoldenRodYellow; margin: 4px; border: 1px solid khaki\"> (<a href=\"http://terminology.hl7.org/5.0.0/CodeSystem-ICF.html\">International Classification of Functioning, Disability and Health</a>#b539)</span>, Encounter Diagnosis <span style=\"background: LightGoldenRodYellow; margin: 4px; border: 1px solid khaki\"> (<a href=\"http://hl7.org/fhir/us/core/STU6.1/CodeSystem-condition-category.html\">US Core Condition Category Extension Codes</a>#encounter-diagnosis)</span>, Encounter Diagnosis <span style=\"background: LightGoldenRodYellow; margin: 4px; border: 1px solid khaki\"> (<a href=\"http://terminology.hl7.org/5.4.0/CodeSystem-condition-category.html\">Condition Category Codes</a>#encounter-diagnosis)</span></p><p><b>code</b>: Anemia co-occurrent and due to chronic kidney disease stage 3 (disorder) <span style=\"background: LightGoldenRodYellow; margin: 4px; border: 1px solid khaki\"> (<a href=\"https://browser.ihtsdotools.org/\">SNOWMED CT</a>#691421000119108)</span></p><p><b>bodySite</b>: Structure of cardiovascular system (body structure) <span style=\"background: LightGoldenRodYellow; margin: 4px; border: 1px solid khaki\"> (<a href=\"https://browser.ihtsdotools.org/\">SNOWMED CT</a>#113257007)</span></p><p><b>subject</b>: See on this page: Patient/patientBSJ1</p><p><b>recordedDate</b>: 2024-04-23 13:15:00-0400</p><p><b>note</b>: See lab</p></div>"
        },
        "extension": [
          {
            "url": "http://hl7.org/fhir/StructureDefinition/condition-assertedDate",
            "valueDateTime": "2024-04-23T13:15:00-04:00"
          }
        ],
        "clinicalStatus": {
          "coding": [
            {
              "system": "http://terminology.hl7.org/CodeSystem/condition-clinical",
              "code": "active"
            }
          ]
        },
        "verificationStatus": {
          "coding": [
            {
              "system": "http://terminology.hl7.org/CodeSystem/condition-ver-status",
              "code": "confirmed"
            }
          ]
        },
        "category": [
          {
            "coding": [
              {
                "system": "http://hl7.org/fhir/sid/icf",
                "code": "b539",
                "display": "Functions related to the digestive system, other specified and unspecified"
              }
            ]
          },
          {
            "coding": [
              {
                "system": "http://hl7.org/fhir/us/core/CodeSystem/condition-category",
                "code": "encounter-diagnosis",
                "display": "Encounter Diagnosis"
              }
            ]
          },
          {
            "coding": [
              {
                "system": "http://terminology.hl7.org/CodeSystem/condition-category",
                "code": "encounter-diagnosis"
              }
            ]
          }
        ],
        "code": {
          "coding": [
            {
              "system": "http://snomed.info/sct",
              "code": "691421000119108",
              "display": "Anemia co-occurrent and due to chronic kidney disease stage 3 (disorder)"
            }
          ]
        },
        "bodySite": [
          {
            "coding": [
              {
                "system": "http://snomed.info/sct",
                "code": "113257007",
                "display": "Structure of cardiovascular system (body structure)"
              }
            ]
          }
        ],
        "subject": {
          "reference": "Patient/patientBSJ1"
        },
        "recordedDate": "2024-04-23T13:15:00-04:00",
        "note": [
          {
            "text": "See lab"
          }
        ]
      }
    },
    {
      "fullUrl": "https://gw.interop.community/MiHIN/open/Condition/BSJ-Constipation",
      "resource": {
        "resourceType": "Condition",
        "id": "BSJ-Constipation",
        "meta": {
          "profile": [
            "http://hl7.org/fhir/us/core/StructureDefinition/us-core-condition-encounter-diagnosis"
          ]
        },
        "text": {
          "status": "extensions",
          "div": "<div xmlns=\"http://www.w3.org/1999/xhtml\"><a name=\"Condition_BSJ-Constipation\"> </a><p><b>Generated Narrative: Condition</b><a name=\"BSJ-Constipation\"> </a><a name=\"hcBSJ-Constipation\"> </a></p><div style=\"display: inline-block; background-color: #d9e0e7; padding: 6px; margin: 4px; border: 1px solid #8da1b4; border-radius: 5px; line-height: 60%\"><p style=\"margin-bottom: 0px\">ResourceCondition &quot;BSJ-Constipation&quot; </p><p style=\"margin-bottom: 0px\">Profile: <a href=\"http://hl7.org/fhir/us/core/STU6.1/StructureDefinition-us-core-condition-encounter-diagnosis.html\">US Core Condition Encounter Diagnosis Profile</a></p></div><p><b>Condition Asserted Date</b>: 2020-11</p><p><b>clinicalStatus</b>: Active <span style=\"background: LightGoldenRodYellow; margin: 4px; border: 1px solid khaki\"> (<a href=\"http://terminology.hl7.org/5.4.0/CodeSystem-condition-clinical.html\">Condition Clinical Status Codes</a>#active)</span></p><p><b>verificationStatus</b>: Confirmed <span style=\"background: LightGoldenRodYellow; margin: 4px; border: 1px solid khaki\"> (<a href=\"http://terminology.hl7.org/5.4.0/CodeSystem-condition-ver-status.html\">ConditionVerificationStatus</a>#confirmed)</span></p><p><b>category</b>: Frequency of defecation <span style=\"background: LightGoldenRodYellow; margin: 4px; border: 1px solid khaki\"> (<a href=\"http://terminology.hl7.org/5.0.0/CodeSystem-ICF.html\">International Classification of Functioning, Disability and Health</a>#b5252)</span>, Encounter Diagnosis <span style=\"background: LightGoldenRodYellow; margin: 4px; border: 1px solid khaki\"> (<a href=\"http://hl7.org/fhir/us/core/STU6.1/CodeSystem-condition-category.html\">US Core Condition Category Extension Codes</a>#encounter-diagnosis)</span>, Encounter Diagnosis <span style=\"background: LightGoldenRodYellow; margin: 4px; border: 1px solid khaki\"> (<a href=\"http://terminology.hl7.org/5.4.0/CodeSystem-condition-category.html\">Condition Category Codes</a>#encounter-diagnosis)</span></p><p><b>code</b>: Drug-induced constipation (disorder) <span style=\"background: LightGoldenRodYellow; margin: 4px; border: 1px solid khaki\"> (<a href=\"https://browser.ihtsdotools.org/\">SNOWMED CT</a>#21782001)</span></p><p><b>bodySite</b>: Colon structure (body structure) <span style=\"background: LightGoldenRodYellow; margin: 4px; border: 1px solid khaki\"> (<a href=\"https://browser.ihtsdotools.org/\">SNOWMED CT</a>#71854001)</span></p><p><b>subject</b>: See on this page: Patient/patientBSJ1</p><p><b>asserter</b>: See on this page: PractitionerRole/Role-IMMD-AnitaChu</p></div>"
        },
        "extension": [
          {
            "url": "http://hl7.org/fhir/StructureDefinition/condition-assertedDate",
            "valueDateTime": "2020-11"
          }
        ],
        "clinicalStatus": {
          "coding": [
            {
              "system": "http://terminology.hl7.org/CodeSystem/condition-clinical",
              "code": "active"
            }
          ]
        },
        "verificationStatus": {
          "coding": [
            {
              "system": "http://terminology.hl7.org/CodeSystem/condition-ver-status",
              "code": "confirmed"
            }
          ]
        },
        "category": [
          {
            "coding": [
              {
                "system": "http://hl7.org/fhir/sid/icf",
                "code": "b5252",
                "display": "Frequency of defecation"
              }
            ]
          },
          {
            "coding": [
              {
                "system": "http://hl7.org/fhir/us/core/CodeSystem/condition-category",
                "code": "encounter-diagnosis",
                "display": "Encounter Diagnosis"
              }
            ]
          },
          {
            "coding": [
              {
                "system": "http://terminology.hl7.org/CodeSystem/condition-category",
                "code": "encounter-diagnosis"
              }
            ]
          }
        ],
        "code": {
          "coding": [
            {
              "system": "http://snomed.info/sct",
              "code": "21782001",
              "display": "Drug-induced constipation (disorder)"
            }
          ]
        },
        "bodySite": [
          {
            "coding": [
              {
                "system": "http://snomed.info/sct",
                "code": "71854001",
                "display": "Colon structure (body structure)"
              }
            ]
          }
        ],
        "subject": {
          "reference": "Patient/patientBSJ1"
        },
        "asserter": {
          "reference": "PractitionerRole/Role-IMMD-AnitaChu"
        }
      }
    },
    {
      "fullUrl": "https://gw.interop.community/MiHIN/open/Condition/BSJ-DepressionDiagnosis",
      "resource": {
        "resourceType": "Condition",
        "id": "BSJ-DepressionDiagnosis",
        "meta": {
          "profile": [
            "http://hl7.org/fhir/us/core/StructureDefinition/us-core-condition-encounter-diagnosis"
          ]
        },
        "text": {
          "status": "extensions",
          "div": "<div xmlns=\"http://www.w3.org/1999/xhtml\"><a name=\"Condition_BSJ-DepressionDiagnosis\"> </a><p><b>Generated Narrative: Condition</b><a name=\"BSJ-DepressionDiagnosis\"> </a><a name=\"hcBSJ-DepressionDiagnosis\"> </a></p><div style=\"display: inline-block; background-color: #d9e0e7; padding: 6px; margin: 4px; border: 1px solid #8da1b4; border-radius: 5px; line-height: 60%\"><p style=\"margin-bottom: 0px\">ResourceCondition &quot;BSJ-DepressionDiagnosis&quot; </p><p style=\"margin-bottom: 0px\">Profile: <a href=\"http://hl7.org/fhir/us/core/STU6.1/StructureDefinition-us-core-condition-encounter-diagnosis.html\">US Core Condition Encounter Diagnosis Profile</a></p></div><p><b>Condition Asserted Date</b>: 2005-02</p><p><b>clinicalStatus</b>: Active <span style=\"background: LightGoldenRodYellow; margin: 4px; border: 1px solid khaki\"> (<a href=\"http://terminology.hl7.org/5.4.0/CodeSystem-condition-clinical.html\">Condition Clinical Status Codes</a>#active)</span></p><p><b>verificationStatus</b>: Confirmed <span style=\"background: LightGoldenRodYellow; margin: 4px; border: 1px solid khaki\"> (<a href=\"http://terminology.hl7.org/5.4.0/CodeSystem-condition-ver-status.html\">ConditionVerificationStatus</a>#confirmed)</span></p><p><b>category</b>: Emotional functions <span style=\"background: LightGoldenRodYellow; margin: 4px; border: 1px solid khaki\"> (<a href=\"http://terminology.hl7.org/5.0.0/CodeSystem-ICF.html\">International Classification of Functioning, Disability and Health</a>#b152)</span>, Encounter Diagnosis <span style=\"background: LightGoldenRodYellow; margin: 4px; border: 1px solid khaki\"> (<a href=\"http://hl7.org/fhir/us/core/STU6.1/CodeSystem-condition-category.html\">US Core Condition Category Extension Codes</a>#encounter-diagnosis)</span>, Encounter Diagnosis <span style=\"background: LightGoldenRodYellow; margin: 4px; border: 1px solid khaki\"> (<a href=\"http://terminology.hl7.org/5.4.0/CodeSystem-condition-category.html\">Condition Category Codes</a>#encounter-diagnosis)</span></p><p><b>code</b>: Depressive disorder (disorder) <span style=\"background: LightGoldenRodYellow; margin: 4px; border: 1px solid khaki\"> (<a href=\"https://browser.ihtsdotools.org/\">SNOWMED CT</a>#35489007)</span></p><p><b>bodySite</b>: Brain structure (body structure) <span style=\"background: LightGoldenRodYellow; margin: 4px; border: 1px solid khaki\"> (<a href=\"https://browser.ihtsdotools.org/\">SNOWMED CT</a>#12738006)</span></p><p><b>subject</b>: See on this page: Patient/patientBSJ1</p></div>"
        },
        "extension": [
          {
            "url": "http://hl7.org/fhir/StructureDefinition/condition-assertedDate",
            "valueDateTime": "2005-02"
          }
        ],
        "clinicalStatus": {
          "coding": [
            {
              "system": "http://terminology.hl7.org/CodeSystem/condition-clinical",
              "code": "active"
            }
          ]
        },
        "verificationStatus": {
          "coding": [
            {
              "system": "http://terminology.hl7.org/CodeSystem/condition-ver-status",
              "code": "confirmed"
            }
          ]
        },
        "category": [
          {
            "coding": [
              {
                "system": "http://hl7.org/fhir/sid/icf",
                "code": "b152",
                "display": "Emotional functions"
              }
            ]
          },
          {
            "coding": [
              {
                "system": "http://hl7.org/fhir/us/core/CodeSystem/condition-category",
                "code": "encounter-diagnosis",
                "display": "Encounter Diagnosis"
              }
            ]
          },
          {
            "coding": [
              {
                "system": "http://terminology.hl7.org/CodeSystem/condition-category",
                "code": "encounter-diagnosis"
              }
            ]
          }
        ],
        "code": {
          "coding": [
            {
              "system": "http://snomed.info/sct",
              "code": "35489007",
              "display": "Depressive disorder (disorder)"
            }
          ]
        },
        "bodySite": [
          {
            "coding": [
              {
                "system": "http://snomed.info/sct",
                "code": "12738006",
                "display": "Brain structure (body structure)"
              }
            ]
          }
        ],
        "subject": {
          "reference": "Patient/patientBSJ1"
        }
      }
    },
    {
      "fullUrl": "https://gw.interop.community/MiHIN/open/Condition/BSJ-DiabetesDiagnosis",
      "resource": {
        "resourceType": "Condition",
        "id": "BSJ-DiabetesDiagnosis",
        "meta": {
          "profile": [
            "http://hl7.org/fhir/us/core/StructureDefinition/us-core-condition-encounter-diagnosis"
          ]
        },
        "text": {
          "status": "extensions",
          "div": "<div xmlns=\"http://www.w3.org/1999/xhtml\"><a name=\"Condition_BSJ-DiabetesDiagnosis\"> </a><p><b>Generated Narrative: Condition</b><a name=\"BSJ-DiabetesDiagnosis\"> </a><a name=\"hcBSJ-DiabetesDiagnosis\"> </a></p><div style=\"display: inline-block; background-color: #d9e0e7; padding: 6px; margin: 4px; border: 1px solid #8da1b4; border-radius: 5px; line-height: 60%\"><p style=\"margin-bottom: 0px\">ResourceCondition &quot;BSJ-DiabetesDiagnosis&quot; </p><p style=\"margin-bottom: 0px\">Profile: <a href=\"http://hl7.org/fhir/us/core/STU6.1/StructureDefinition-us-core-condition-encounter-diagnosis.html\">US Core Condition Encounter Diagnosis Profile</a></p></div><p><b>Condition Asserted Date</b>: 2017-06</p><p><b>clinicalStatus</b>: Active <span style=\"background: LightGoldenRodYellow; margin: 4px; border: 1px solid khaki\"> (<a href=\"http://terminology.hl7.org/5.4.0/CodeSystem-condition-clinical.html\">Condition Clinical Status Codes</a>#active)</span></p><p><b>verificationStatus</b>: Confirmed <span style=\"background: LightGoldenRodYellow; margin: 4px; border: 1px solid khaki\"> (<a href=\"http://terminology.hl7.org/5.4.0/CodeSystem-condition-ver-status.html\">ConditionVerificationStatus</a>#confirmed)</span></p><p><b>category</b>: Carbohydrate metabolism <span style=\"background: LightGoldenRodYellow; margin: 4px; border: 1px solid khaki\"> (<a href=\"http://terminology.hl7.org/5.0.0/CodeSystem-ICF.html\">International Classification of Functioning, Disability and Health</a>#b5401)</span>, Encounter Diagnosis <span style=\"background: LightGoldenRodYellow; margin: 4px; border: 1px solid khaki\"> (<a href=\"http://hl7.org/fhir/us/core/STU6.1/CodeSystem-condition-category.html\">US Core Condition Category Extension Codes</a>#encounter-diagnosis)</span>, Encounter Diagnosis <span style=\"background: LightGoldenRodYellow; margin: 4px; border: 1px solid khaki\"> (<a href=\"http://terminology.hl7.org/5.4.0/CodeSystem-condition-category.html\">Condition Category Codes</a>#encounter-diagnosis)</span></p><p><b>code</b>: Diabetes mellitus type 2 in nonobese (disorder) <span style=\"background: LightGoldenRodYellow; margin: 4px; border: 1px solid khaki\"> (<a href=\"https://browser.ihtsdotools.org/\">SNOWMED CT</a>#359642000)</span></p><p><b>bodySite</b>: Structure of endocrine system (body structure) <span style=\"background: LightGoldenRodYellow; margin: 4px; border: 1px solid khaki\"> (<a href=\"https://browser.ihtsdotools.org/\">SNOWMED CT</a>#113331007)</span></p><p><b>subject</b>: See on this page: Patient/patientBSJ1</p><p><b>onset</b>: 2017-06</p><p><b>recordedDate</b>: 2017-06-05</p><p><b>asserter</b>: See on this page: PractitionerRole/Role-IMMD-AnitaChu</p></div>"
        },
        "extension": [
          {
            "url": "http://hl7.org/fhir/StructureDefinition/condition-assertedDate",
            "valueDateTime": "2017-06"
          }
        ],
        "clinicalStatus": {
          "coding": [
            {
              "system": "http://terminology.hl7.org/CodeSystem/condition-clinical",
              "code": "active"
            }
          ]
        },
        "verificationStatus": {
          "coding": [
            {
              "system": "http://terminology.hl7.org/CodeSystem/condition-ver-status",
              "code": "confirmed"
            }
          ]
        },
        "category": [
          {
            "coding": [
              {
                "system": "http://hl7.org/fhir/sid/icf",
                "code": "b5401",
                "display": "Carbohydrate metabolism"
              }
            ]
          },
          {
            "coding": [
              {
                "system": "http://hl7.org/fhir/us/core/CodeSystem/condition-category",
                "code": "encounter-diagnosis",
                "display": "Encounter Diagnosis"
              }
            ]
          },
          {
            "coding": [
              {
                "system": "http://terminology.hl7.org/CodeSystem/condition-category",
                "code": "encounter-diagnosis"
              }
            ]
          }
        ],
        "code": {
          "coding": [
            {
              "system": "http://snomed.info/sct",
              "code": "359642000",
              "display": "Diabetes mellitus type 2 in nonobese (disorder)"
            }
          ]
        },
        "bodySite": [
          {
            "coding": [
              {
                "system": "http://snomed.info/sct",
                "code": "113331007",
                "display": "Structure of endocrine system (body structure)"
              }
            ]
          }
        ],
        "subject": {
          "reference": "Patient/patientBSJ1"
        },
        "onsetDateTime": "2017-06",
        "recordedDate": "2017-06-05",
        "asserter": {
          "reference": "PractitionerRole/Role-IMMD-AnitaChu"
        }
      }
    },
    {
      "fullUrl": "https://gw.interop.community/MiHIN/open/Condition/BSJ-DressingConcern",
      "resource": {
        "resourceType": "Condition",
        "id": "BSJ-DressingConcern",
        "meta": {
          "profile": [
            "http://hl7.org/fhir/us/core/StructureDefinition/us-core-condition-problems-health-concerns"
          ]
        },
        "text": {
          "status": "generated",
          "div": "<div xmlns=\"http://www.w3.org/1999/xhtml\"><a name=\"Condition_BSJ-DressingConcern\"> </a><p><b>Generated Narrative: Condition</b><a name=\"BSJ-DressingConcern\"> </a><a name=\"hcBSJ-DressingConcern\"> </a></p><div style=\"display: inline-block; background-color: #d9e0e7; padding: 6px; margin: 4px; border: 1px solid #8da1b4; border-radius: 5px; line-height: 60%\"><p style=\"margin-bottom: 0px\">ResourceCondition &quot;BSJ-DressingConcern&quot; </p><p style=\"margin-bottom: 0px\">Profile: <a href=\"http://hl7.org/fhir/us/core/STU6.1/StructureDefinition-us-core-condition-problems-health-concerns.html\">US Core Condition Problems and Health Concerns Profile</a></p></div><p><b>clinicalStatus</b>: Active <span style=\"background: LightGoldenRodYellow; margin: 4px; border: 1px solid khaki\"> (<a href=\"http://terminology.hl7.org/5.4.0/CodeSystem-condition-clinical.html\">Condition Clinical Status Codes</a>#active)</span></p><p><b>verificationStatus</b>: Confirmed <span style=\"background: LightGoldenRodYellow; margin: 4px; border: 1px solid khaki\"> (<a href=\"http://terminology.hl7.org/5.4.0/CodeSystem-condition-ver-status.html\">ConditionVerificationStatus</a>#confirmed)</span></p><p><b>category</b>: control of complex voluntary movements <span style=\"background: LightGoldenRodYellow; margin: 4px; border: 1px solid khaki\"> (<a href=\"http://terminology.hl7.org/5.0.0/CodeSystem-ICF.html\">International Classification of Functioning, Disability and Health</a>#b7601)</span>, Health Concern <span style=\"background: LightGoldenRodYellow; margin: 4px; border: 1px solid khaki\"> (<a href=\"http://hl7.org/fhir/us/core/STU6.1/CodeSystem-condition-category.html\">US Core Condition Category Extension Codes</a>#health-concern)</span>, Functional Status <span style=\"background: LightGoldenRodYellow; margin: 4px; border: 1px solid khaki\"> (<a href=\"http://hl7.org/fhir/us/core/STU6.1/CodeSystem-us-core-category.html\">US Core Category</a>#functional-status)</span></p><p><b>code</b>: Difficulty performing dressing activity (finding) <span style=\"background: LightGoldenRodYellow; margin: 4px; border: 1px solid khaki\"> (<a href=\"https://browser.ihtsdotools.org/\">SNOWMED CT</a>#284972002)</span></p><p><b>subject</b>: See on this page: Patient/patientBSJ1</p><p><b>recordedDate</b>: 2024-04-27 15:40:00-0400</p><p><b>asserter</b>: See on this page: PractitionerRole/Role-OT-JenCadbury</p><p><b>note</b>: Betsy is frustrated, embarrassed, and worried about not being able to dress herself</p></div>"
        },
        "clinicalStatus": {
          "coding": [
            {
              "system": "http://terminology.hl7.org/CodeSystem/condition-clinical",
              "code": "active"
            }
          ]
        },
        "verificationStatus": {
          "coding": [
            {
              "system": "http://terminology.hl7.org/CodeSystem/condition-ver-status",
              "code": "confirmed"
            }
          ]
        },
        "category": [
          {
            "coding": [
              {
                "system": "http://hl7.org/fhir/sid/icf",
                "code": "b7601",
                "display": "control of complex voluntary movements"
              }
            ]
          },
          {
            "coding": [
              {
                "system": "http://hl7.org/fhir/us/core/CodeSystem/condition-category",
                "code": "health-concern",
                "display": "Health Concern"
              }
            ]
          },
          {
            "coding": [
              {
                "system": "http://hl7.org/fhir/us/core/CodeSystem/us-core-category",
                "code": "functional-status",
                "display": "Functional Status"
              }
            ]
          }
        ],
        "code": {
          "coding": [
            {
              "system": "http://snomed.info/sct",
              "code": "284972002",
              "display": "Difficulty performing dressing activity (finding)"
            }
          ]
        },
        "subject": {
          "reference": "Patient/patientBSJ1"
        },
        "recordedDate": "2024-04-27T15:40:00-04:00",
        "asserter": {
          "reference": "PractitionerRole/Role-OT-JenCadbury"
        },
        "note": [
          {
            "text": "Betsy is frustrated, embarrassed, and worried about not being able to dress herself"
          }
        ]
      }
    },
    {
      "fullUrl": "https://gw.interop.community/MiHIN/open/Condition/BSJ-HeartDiseaseDiagnosis",
      "resource": {
        "resourceType": "Condition",
        "id": "BSJ-HeartDiseaseDiagnosis",
        "meta": {
          "profile": [
            "http://hl7.org/fhir/us/core/StructureDefinition/us-core-condition-encounter-diagnosis"
          ]
        },
        "text": {
          "status": "extensions",
          "div": "<div xmlns=\"http://www.w3.org/1999/xhtml\"><a name=\"Condition_BSJ-HeartDiseaseDiagnosis\"> </a><p><b>Generated Narrative: Condition</b><a name=\"BSJ-HeartDiseaseDiagnosis\"> </a><a name=\"hcBSJ-HeartDiseaseDiagnosis\"> </a></p><div style=\"display: inline-block; background-color: #d9e0e7; padding: 6px; margin: 4px; border: 1px solid #8da1b4; border-radius: 5px; line-height: 60%\"><p style=\"margin-bottom: 0px\">ResourceCondition &quot;BSJ-HeartDiseaseDiagnosis&quot; </p><p style=\"margin-bottom: 0px\">Profile: <a href=\"http://hl7.org/fhir/us/core/STU6.1/StructureDefinition-us-core-condition-encounter-diagnosis.html\">US Core Condition Encounter Diagnosis Profile</a></p></div><p><b>Condition Asserted Date</b>: 2019-06</p><p><b>clinicalStatus</b>: Active <span style=\"background: LightGoldenRodYellow; margin: 4px; border: 1px solid khaki\"> (<a href=\"http://terminology.hl7.org/5.4.0/CodeSystem-condition-clinical.html\">Condition Clinical Status Codes</a>#active)</span></p><p><b>verificationStatus</b>: Confirmed <span style=\"background: LightGoldenRodYellow; margin: 4px; border: 1px solid khaki\"> (<a href=\"http://terminology.hl7.org/5.4.0/CodeSystem-condition-ver-status.html\">ConditionVerificationStatus</a>#confirmed)</span></p><p><b>category</b>: Blood vessel functions <span style=\"background: LightGoldenRodYellow; margin: 4px; border: 1px solid khaki\"> (<a href=\"http://terminology.hl7.org/5.0.0/CodeSystem-ICF.html\">International Classification of Functioning, Disability and Health</a>#b415)</span>, Encounter Diagnosis <span style=\"background: LightGoldenRodYellow; margin: 4px; border: 1px solid khaki\"> (<a href=\"http://hl7.org/fhir/us/core/STU6.1/CodeSystem-condition-category.html\">US Core Condition Category Extension Codes</a>#encounter-diagnosis)</span>, Encounter Diagnosis <span style=\"background: LightGoldenRodYellow; margin: 4px; border: 1px solid khaki\"> (<a href=\"http://terminology.hl7.org/5.4.0/CodeSystem-condition-category.html\">Condition Category Codes</a>#encounter-diagnosis)</span></p><p><b>code</b>: Ischemic heart disease (disorder) <span style=\"background: LightGoldenRodYellow; margin: 4px; border: 1px solid khaki\"> (<a href=\"https://browser.ihtsdotools.org/\">SNOWMED CT</a>#414545008)</span></p><p><b>bodySite</b>: Structure of cardiovascular system (body structure) <span style=\"background: LightGoldenRodYellow; margin: 4px; border: 1px solid khaki\"> (<a href=\"https://browser.ihtsdotools.org/\">SNOWMED CT</a>#113257007)</span></p><p><b>subject</b>: See on this page: Patient/patientBSJ1</p><p><b>recordedDate</b>: 2019-06-08 14:15:00-0400</p><p><b>asserter</b>: See on this page: PractitionerRole/Role-IMMD-AnitaChu</p></div>"
        },
        "extension": [
          {
            "url": "http://hl7.org/fhir/StructureDefinition/condition-assertedDate",
            "valueDateTime": "2019-06"
          }
        ],
        "clinicalStatus": {
          "coding": [
            {
              "system": "http://terminology.hl7.org/CodeSystem/condition-clinical",
              "code": "active"
            }
          ]
        },
        "verificationStatus": {
          "coding": [
            {
              "system": "http://terminology.hl7.org/CodeSystem/condition-ver-status",
              "code": "confirmed"
            }
          ]
        },
        "category": [
          {
            "coding": [
              {
                "system": "http://hl7.org/fhir/sid/icf",
                "code": "b415",
                "display": "Blood vessel functions"
              }
            ]
          },
          {
            "coding": [
              {
                "system": "http://hl7.org/fhir/us/core/CodeSystem/condition-category",
                "code": "encounter-diagnosis",
                "display": "Encounter Diagnosis"
              }
            ]
          },
          {
            "coding": [
              {
                "system": "http://terminology.hl7.org/CodeSystem/condition-category",
                "code": "encounter-diagnosis"
              }
            ]
          }
        ],
        "code": {
          "coding": [
            {
              "system": "http://snomed.info/sct",
              "code": "414545008",
              "display": "Ischemic heart disease (disorder)"
            }
          ]
        },
        "bodySite": [
          {
            "coding": [
              {
                "system": "http://snomed.info/sct",
                "code": "113257007",
                "display": "Structure of cardiovascular system (body structure)"
              }
            ]
          }
        ],
        "subject": {
          "reference": "Patient/patientBSJ1"
        },
        "recordedDate": "2019-06-08T14:15:00-04:00",
        "asserter": {
          "reference": "PractitionerRole/Role-IMMD-AnitaChu"
        }
      }
    },
    {
      "fullUrl": "https://gw.interop.community/MiHIN/open/Condition/BSJ-HemiparesisDiagnosis",
      "resource": {
        "resourceType": "Condition",
        "id": "BSJ-HemiparesisDiagnosis",
        "meta": {
          "profile": [
            "http://hl7.org/fhir/us/core/StructureDefinition/us-core-condition-encounter-diagnosis"
          ]
        },
        "text": {
          "status": "extensions",
          "div": "<div xmlns=\"http://www.w3.org/1999/xhtml\"><a name=\"Condition_BSJ-HemiparesisDiagnosis\"> </a><p><b>Generated Narrative: Condition</b><a name=\"BSJ-HemiparesisDiagnosis\"> </a><a name=\"hcBSJ-HemiparesisDiagnosis\"> </a></p><div style=\"display: inline-block; background-color: #d9e0e7; padding: 6px; margin: 4px; border: 1px solid #8da1b4; border-radius: 5px; line-height: 60%\"><p style=\"margin-bottom: 0px\">ResourceCondition &quot;BSJ-HemiparesisDiagnosis&quot; </p><p style=\"margin-bottom: 0px\">Profile: <a href=\"http://hl7.org/fhir/us/core/STU6.1/StructureDefinition-us-core-condition-encounter-diagnosis.html\">US Core Condition Encounter Diagnosis Profile</a></p></div><p><b>Condition Asserted Date</b>: 2024-04-18 13:30:00-0400</p><p><b>clinicalStatus</b>: Active <span style=\"background: LightGoldenRodYellow; margin: 4px; border: 1px solid khaki\"> (<a href=\"http://terminology.hl7.org/5.4.0/CodeSystem-condition-clinical.html\">Condition Clinical Status Codes</a>#active)</span></p><p><b>verificationStatus</b>: Confirmed <span style=\"background: LightGoldenRodYellow; margin: 4px; border: 1px solid khaki\"> (<a href=\"http://terminology.hl7.org/5.4.0/CodeSystem-condition-ver-status.html\">ConditionVerificationStatus</a>#confirmed)</span></p><p><b>category</b>: Power of muscles on one side of the body <span style=\"background: LightGoldenRodYellow; margin: 4px; border: 1px solid khaki\"> (<a href=\"http://terminology.hl7.org/5.0.0/CodeSystem-ICF.html\">International Classification of Functioning, Disability and Health</a>#b7302)</span>, Encounter Diagnosis <span style=\"background: LightGoldenRodYellow; margin: 4px; border: 1px solid khaki\"> (<a href=\"http://hl7.org/fhir/us/core/STU6.1/CodeSystem-condition-category.html\">US Core Condition Category Extension Codes</a>#encounter-diagnosis)</span>, Encounter Diagnosis <span style=\"background: LightGoldenRodYellow; margin: 4px; border: 1px solid khaki\"> (<a href=\"http://terminology.hl7.org/5.4.0/CodeSystem-condition-category.html\">Condition Category Codes</a>#encounter-diagnosis)</span></p><p><b>code</b>: Right hemiparesis (disorder) <span style=\"background: LightGoldenRodYellow; margin: 4px; border: 1px solid khaki\"> (<a href=\"https://browser.ihtsdotools.org/\">SNOWMED CT</a>#278286009)</span></p><p><b>bodySite</b>: Right upper arm structure (body structure) <span style=\"background: LightGoldenRodYellow; margin: 4px; border: 1px solid khaki\"> (<a href=\"https://browser.ihtsdotools.org/\">SNOWMED CT</a>#368209003)</span></p><p><b>subject</b>: See on this page: Patient/patientBSJ1</p><p><b>onset</b>: 2024-04-17 15:40:00-0400</p><p><b>recordedDate</b>: 2024-04-18 13:30:00-0400</p><p><b>asserter</b>: See on this page: PractitionerRole/Role-Neuro-NuraMekel</p><p><b>note</b>: Patient began experiencing right sided weakness, primarily in arm and shoulder. There was no facial droop, but patient reports &quot;tingling&quot; in R face / numbness along R brow. Symptoms in face resolved post tPA administration. Strength improved in shoulder, weakness did not fully resolve. Demonstrates R arm weakness and lack of coordination. Fine motor skills significantly degraded and have not improved post tPA.</p></div>"
        },
        "extension": [
          {
            "url": "http://hl7.org/fhir/StructureDefinition/condition-assertedDate",
            "valueDateTime": "2024-04-18T13:30:00-04:00"
          }
        ],
        "clinicalStatus": {
          "coding": [
            {
              "system": "http://terminology.hl7.org/CodeSystem/condition-clinical",
              "code": "active"
            }
          ]
        },
        "verificationStatus": {
          "coding": [
            {
              "system": "http://terminology.hl7.org/CodeSystem/condition-ver-status",
              "code": "confirmed"
            }
          ]
        },
        "category": [
          {
            "coding": [
              {
                "system": "http://hl7.org/fhir/sid/icf",
                "code": "b7302",
                "display": "Power of muscles on one side of the body"
              }
            ]
          },
          {
            "coding": [
              {
                "system": "http://hl7.org/fhir/us/core/CodeSystem/condition-category",
                "code": "encounter-diagnosis",
                "display": "Encounter Diagnosis"
              }
            ]
          },
          {
            "coding": [
              {
                "system": "http://terminology.hl7.org/CodeSystem/condition-category",
                "code": "encounter-diagnosis"
              }
            ]
          }
        ],
        "code": {
          "coding": [
            {
              "system": "http://snomed.info/sct",
              "code": "278286009",
              "display": "Right hemiparesis (disorder)"
            }
          ]
        },
        "bodySite": [
          {
            "coding": [
              {
                "system": "http://snomed.info/sct",
                "code": "368209003",
                "display": "Right upper arm structure (body structure)"
              }
            ]
          }
        ],
        "subject": {
          "reference": "Patient/patientBSJ1"
        },
        "onsetDateTime": "2024-04-17T15:40:00-04:00",
        "recordedDate": "2024-04-18T13:30:00-04:00",
        "asserter": {
          "reference": "PractitionerRole/Role-Neuro-NuraMekel"
        },
        "note": [
          {
            "text": "Patient began experiencing right sided weakness, primarily in arm and shoulder. There was no facial droop, but patient reports \"tingling\" in R face / numbness along R brow. Symptoms in face resolved post tPA administration. Strength improved in shoulder, weakness did not fully resolve. Demonstrates R arm weakness and lack of coordination. Fine motor skills significantly degraded and have not improved post tPA."
          }
        ]
      }
    },
    {
      "fullUrl": "https://gw.interop.community/MiHIN/open/Condition/BSJ-Hyperlipidemia",
      "resource": {
        "resourceType": "Condition",
        "id": "BSJ-Hyperlipidemia",
        "meta": {
          "profile": [
            "http://hl7.org/fhir/us/core/StructureDefinition/us-core-condition-encounter-diagnosis"
          ]
        },
        "text": {
          "status": "extensions",
          "div": "<div xmlns=\"http://www.w3.org/1999/xhtml\"><a name=\"Condition_BSJ-Hyperlipidemia\"> </a><p><b>Generated Narrative: Condition</b><a name=\"BSJ-Hyperlipidemia\"> </a><a name=\"hcBSJ-Hyperlipidemia\"> </a></p><div style=\"display: inline-block; background-color: #d9e0e7; padding: 6px; margin: 4px; border: 1px solid #8da1b4; border-radius: 5px; line-height: 60%\"><p style=\"margin-bottom: 0px\">ResourceCondition &quot;BSJ-Hyperlipidemia&quot; </p><p style=\"margin-bottom: 0px\">Profile: <a href=\"http://hl7.org/fhir/us/core/STU6.1/StructureDefinition-us-core-condition-encounter-diagnosis.html\">US Core Condition Encounter Diagnosis Profile</a></p></div><p><b>Condition Asserted Date</b>: 2018-06</p><p><b>clinicalStatus</b>: Active <span style=\"background: LightGoldenRodYellow; margin: 4px; border: 1px solid khaki\"> (<a href=\"http://terminology.hl7.org/5.4.0/CodeSystem-condition-clinical.html\">Condition Clinical Status Codes</a>#active)</span></p><p><b>verificationStatus</b>: Confirmed <span style=\"background: LightGoldenRodYellow; margin: 4px; border: 1px solid khaki\"> (<a href=\"http://terminology.hl7.org/5.4.0/CodeSystem-condition-ver-status.html\">ConditionVerificationStatus</a>#confirmed)</span></p><p><b>category</b>: Fat metabolism <span style=\"background: LightGoldenRodYellow; margin: 4px; border: 1px solid khaki\"> (<a href=\"http://terminology.hl7.org/5.0.0/CodeSystem-ICF.html\">International Classification of Functioning, Disability and Health</a>#b5403)</span>, Encounter Diagnosis <span style=\"background: LightGoldenRodYellow; margin: 4px; border: 1px solid khaki\"> (<a href=\"http://hl7.org/fhir/us/core/STU6.1/CodeSystem-condition-category.html\">US Core Condition Category Extension Codes</a>#encounter-diagnosis)</span>, Encounter Diagnosis <span style=\"background: LightGoldenRodYellow; margin: 4px; border: 1px solid khaki\"> (<a href=\"http://terminology.hl7.org/5.4.0/CodeSystem-condition-category.html\">Condition Category Codes</a>#encounter-diagnosis)</span></p><p><b>code</b>: Hyperlipidemia (disorder) <span style=\"background: LightGoldenRodYellow; margin: 4px; border: 1px solid khaki\"> (<a href=\"https://browser.ihtsdotools.org/\">SNOWMED CT</a>#55822004)</span></p><p><b>bodySite</b>: Structure of cardiovascular system (body structure) <span style=\"background: LightGoldenRodYellow; margin: 4px; border: 1px solid khaki\"> (<a href=\"https://browser.ihtsdotools.org/\">SNOWMED CT</a>#113257007)</span></p><p><b>subject</b>: See on this page: Patient/patientBSJ1</p><p><b>asserter</b>: See on this page: PractitionerRole/Role-IMMD-AnitaChu</p></div>"
        },
        "extension": [
          {
            "url": "http://hl7.org/fhir/StructureDefinition/condition-assertedDate",
            "valueDateTime": "2018-06"
          }
        ],
        "clinicalStatus": {
          "coding": [
            {
              "system": "http://terminology.hl7.org/CodeSystem/condition-clinical",
              "code": "active"
            }
          ]
        },
        "verificationStatus": {
          "coding": [
            {
              "system": "http://terminology.hl7.org/CodeSystem/condition-ver-status",
              "code": "confirmed"
            }
          ]
        },
        "category": [
          {
            "coding": [
              {
                "system": "http://hl7.org/fhir/sid/icf",
                "code": "b5403",
                "display": "Fat metabolism"
              }
            ]
          },
          {
            "coding": [
              {
                "system": "http://hl7.org/fhir/us/core/CodeSystem/condition-category",
                "code": "encounter-diagnosis",
                "display": "Encounter Diagnosis"
              }
            ]
          },
          {
            "coding": [
              {
                "system": "http://terminology.hl7.org/CodeSystem/condition-category",
                "code": "encounter-diagnosis"
              }
            ]
          }
        ],
        "code": {
          "coding": [
            {
              "system": "http://snomed.info/sct",
              "code": "55822004",
              "display": "Hyperlipidemia (disorder)"
            }
          ]
        },
        "bodySite": [
          {
            "coding": [
              {
                "system": "http://snomed.info/sct",
                "code": "113257007",
                "display": "Structure of cardiovascular system (body structure)"
              }
            ]
          }
        ],
        "subject": {
          "reference": "Patient/patientBSJ1"
        },
        "asserter": {
          "reference": "PractitionerRole/Role-IMMD-AnitaChu"
        }
      }
    },
    {
      "fullUrl": "https://gw.interop.community/MiHIN/open/Condition/BSJ-HypertensionDiagnosis",
      "resource": {
        "resourceType": "Condition",
        "id": "BSJ-HypertensionDiagnosis",
        "meta": {
          "profile": [
            "http://hl7.org/fhir/us/core/StructureDefinition/us-core-condition-encounter-diagnosis"
          ]
        },
        "text": {
          "status": "extensions",
          "div": "<div xmlns=\"http://www.w3.org/1999/xhtml\"><a name=\"Condition_BSJ-HypertensionDiagnosis\"> </a><p><b>Generated Narrative: Condition</b><a name=\"BSJ-HypertensionDiagnosis\"> </a><a name=\"hcBSJ-HypertensionDiagnosis\"> </a></p><div style=\"display: inline-block; background-color: #d9e0e7; padding: 6px; margin: 4px; border: 1px solid #8da1b4; border-radius: 5px; line-height: 60%\"><p style=\"margin-bottom: 0px\">ResourceCondition &quot;BSJ-HypertensionDiagnosis&quot; </p><p style=\"margin-bottom: 0px\">Profile: <a href=\"http://hl7.org/fhir/us/core/STU6.1/StructureDefinition-us-core-condition-encounter-diagnosis.html\">US Core Condition Encounter Diagnosis Profile</a></p></div><p><b>Condition Asserted Date</b>: 2011-09</p><p><b>clinicalStatus</b>: Active <span style=\"background: LightGoldenRodYellow; margin: 4px; border: 1px solid khaki\"> (<a href=\"http://terminology.hl7.org/5.4.0/CodeSystem-condition-clinical.html\">Condition Clinical Status Codes</a>#active)</span></p><p><b>verificationStatus</b>: Confirmed <span style=\"background: LightGoldenRodYellow; margin: 4px; border: 1px solid khaki\"> (<a href=\"http://terminology.hl7.org/5.4.0/CodeSystem-condition-ver-status.html\">ConditionVerificationStatus</a>#confirmed)</span></p><p><b>category</b>: Maintenance of blood pressure <span style=\"background: LightGoldenRodYellow; margin: 4px; border: 1px solid khaki\"> (<a href=\"http://terminology.hl7.org/5.0.0/CodeSystem-ICF.html\">International Classification of Functioning, Disability and Health</a>#b4202)</span>, Encounter Diagnosis <span style=\"background: LightGoldenRodYellow; margin: 4px; border: 1px solid khaki\"> (<a href=\"http://hl7.org/fhir/us/core/STU6.1/CodeSystem-condition-category.html\">US Core Condition Category Extension Codes</a>#encounter-diagnosis)</span>, Encounter Diagnosis <span style=\"background: LightGoldenRodYellow; margin: 4px; border: 1px solid khaki\"> (<a href=\"http://terminology.hl7.org/5.4.0/CodeSystem-condition-category.html\">Condition Category Codes</a>#encounter-diagnosis)</span></p><p><b>code</b>: Hypertensive disorder, systemic arterial (disorder) <span style=\"background: LightGoldenRodYellow; margin: 4px; border: 1px solid khaki\"> (<a href=\"https://browser.ihtsdotools.org/\">SNOWMED CT</a>#38341003)</span></p><p><b>bodySite</b>: Structure of cardiovascular system (body structure) <span style=\"background: LightGoldenRodYellow; margin: 4px; border: 1px solid khaki\"> (<a href=\"https://browser.ihtsdotools.org/\">SNOWMED CT</a>#113257007)</span></p><p><b>subject</b>: See on this page: Patient/patientBSJ1</p><p><b>onset</b>: 2011-08</p><p><b>recordedDate</b>: 2011-09-17</p><p><b>asserter</b>: See on this page: PractitionerRole/Role-IMMD-AnitaChu</p></div>"
        },
        "extension": [
          {
            "url": "http://hl7.org/fhir/StructureDefinition/condition-assertedDate",
            "valueDateTime": "2011-09"
          }
        ],
        "clinicalStatus": {
          "coding": [
            {
              "system": "http://terminology.hl7.org/CodeSystem/condition-clinical",
              "code": "active"
            }
          ]
        },
        "verificationStatus": {
          "coding": [
            {
              "system": "http://terminology.hl7.org/CodeSystem/condition-ver-status",
              "code": "confirmed"
            }
          ]
        },
        "category": [
          {
            "coding": [
              {
                "system": "http://hl7.org/fhir/sid/icf",
                "code": "b4202",
                "display": "Maintenance of blood pressure"
              }
            ]
          },
          {
            "coding": [
              {
                "system": "http://hl7.org/fhir/us/core/CodeSystem/condition-category",
                "code": "encounter-diagnosis",
                "display": "Encounter Diagnosis"
              }
            ]
          },
          {
            "coding": [
              {
                "system": "http://terminology.hl7.org/CodeSystem/condition-category",
                "code": "encounter-diagnosis"
              }
            ]
          }
        ],
        "code": {
          "coding": [
            {
              "system": "http://snomed.info/sct",
              "code": "38341003",
              "display": "Hypertensive disorder, systemic arterial (disorder)"
            }
          ]
        },
        "bodySite": [
          {
            "coding": [
              {
                "system": "http://snomed.info/sct",
                "code": "113257007",
                "display": "Structure of cardiovascular system (body structure)"
              }
            ]
          }
        ],
        "subject": {
          "reference": "Patient/patientBSJ1"
        },
        "onsetDateTime": "2011-08",
        "recordedDate": "2011-09-17",
        "asserter": {
          "reference": "PractitionerRole/Role-IMMD-AnitaChu"
        }
      }
    },
    {
      "fullUrl": "https://gw.interop.community/MiHIN/open/Condition/BSJ-KidneyDisease",
      "resource": {
        "resourceType": "Condition",
        "id": "BSJ-KidneyDisease",
        "meta": {
          "profile": [
            "http://hl7.org/fhir/us/core/StructureDefinition/us-core-condition-encounter-diagnosis"
          ]
        },
        "text": {
          "status": "extensions",
          "div": "<div xmlns=\"http://www.w3.org/1999/xhtml\"><a name=\"Condition_BSJ-KidneyDisease\"> </a><p><b>Generated Narrative: Condition</b><a name=\"BSJ-KidneyDisease\"> </a><a name=\"hcBSJ-KidneyDisease\"> </a></p><div style=\"display: inline-block; background-color: #d9e0e7; padding: 6px; margin: 4px; border: 1px solid #8da1b4; border-radius: 5px; line-height: 60%\"><p style=\"margin-bottom: 0px\">ResourceCondition &quot;BSJ-KidneyDisease&quot; </p><p style=\"margin-bottom: 0px\">Profile: <a href=\"http://hl7.org/fhir/us/core/STU6.1/StructureDefinition-us-core-condition-encounter-diagnosis.html\">US Core Condition Encounter Diagnosis Profile</a></p></div><p><b>Condition Asserted Date</b>: 2021-04</p><p><b>clinicalStatus</b>: Active <span style=\"background: LightGoldenRodYellow; margin: 4px; border: 1px solid khaki\"> (<a href=\"http://terminology.hl7.org/5.4.0/CodeSystem-condition-clinical.html\">Condition Clinical Status Codes</a>#active)</span></p><p><b>verificationStatus</b>: Confirmed <span style=\"background: LightGoldenRodYellow; margin: 4px; border: 1px solid khaki\"> (<a href=\"http://terminology.hl7.org/5.4.0/CodeSystem-condition-ver-status.html\">ConditionVerificationStatus</a>#confirmed)</span></p><p><b>category</b>: Urinary excretory functions <span style=\"background: LightGoldenRodYellow; margin: 4px; border: 1px solid khaki\"> (<a href=\"http://terminology.hl7.org/5.0.0/CodeSystem-ICF.html\">International Classification of Functioning, Disability and Health</a>#b610)</span>, Encounter Diagnosis <span style=\"background: LightGoldenRodYellow; margin: 4px; border: 1px solid khaki\"> (<a href=\"http://hl7.org/fhir/us/core/STU6.1/CodeSystem-condition-category.html\">US Core Condition Category Extension Codes</a>#encounter-diagnosis)</span>, Encounter Diagnosis <span style=\"background: LightGoldenRodYellow; margin: 4px; border: 1px solid khaki\"> (<a href=\"http://terminology.hl7.org/5.4.0/CodeSystem-condition-category.html\">Condition Category Codes</a>#encounter-diagnosis)</span></p><p><b>code</b>: Chronic kidney disease stage 3 due to type 2 diabetes mellitus (disorder) <span style=\"background: LightGoldenRodYellow; margin: 4px; border: 1px solid khaki\"> (<a href=\"https://browser.ihtsdotools.org/\">SNOWMED CT</a>#731000119105)</span></p><p><b>bodySite</b>: Both kidneys (body structure) <span style=\"background: LightGoldenRodYellow; margin: 4px; border: 1px solid khaki\"> (<a href=\"https://browser.ihtsdotools.org/\">SNOWMED CT</a>#17373004)</span></p><p><b>subject</b>: See on this page: Patient/patientBSJ1</p><p><b>recordedDate</b>: 2021-04-10 15:00:00-0400</p><p><b>asserter</b>: See on this page: PractitionerRole/Role-IMMD-AnitaChu</p></div>"
        },
        "extension": [
          {
            "url": "http://hl7.org/fhir/StructureDefinition/condition-assertedDate",
            "valueDateTime": "2021-04"
          }
        ],
        "clinicalStatus": {
          "coding": [
            {
              "system": "http://terminology.hl7.org/CodeSystem/condition-clinical",
              "code": "active"
            }
          ]
        },
        "verificationStatus": {
          "coding": [
            {
              "system": "http://terminology.hl7.org/CodeSystem/condition-ver-status",
              "code": "confirmed"
            }
          ]
        },
        "category": [
          {
            "coding": [
              {
                "system": "http://hl7.org/fhir/sid/icf",
                "code": "b610",
                "display": "Urinary excretory functions"
              }
            ]
          },
          {
            "coding": [
              {
                "system": "http://hl7.org/fhir/us/core/CodeSystem/condition-category",
                "code": "encounter-diagnosis",
                "display": "Encounter Diagnosis"
              }
            ]
          },
          {
            "coding": [
              {
                "system": "http://terminology.hl7.org/CodeSystem/condition-category",
                "code": "encounter-diagnosis"
              }
            ]
          }
        ],
        "code": {
          "coding": [
            {
              "system": "http://snomed.info/sct",
              "code": "731000119105",
              "display": "Chronic kidney disease stage 3 due to type 2 diabetes mellitus (disorder)"
            }
          ]
        },
        "bodySite": [
          {
            "coding": [
              {
                "system": "http://snomed.info/sct",
                "code": "17373004",
                "display": "Both kidneys (body structure)"
              }
            ]
          }
        ],
        "subject": {
          "reference": "Patient/patientBSJ1"
        },
        "recordedDate": "2021-04-10T15:00:00-04:00",
        "asserter": {
          "reference": "PractitionerRole/Role-IMMD-AnitaChu"
        }
      }
    },
    {
      "fullUrl": "https://gw.interop.community/MiHIN/open/Condition/BSJ-NauseaAndVomiting",
      "resource": {
        "resourceType": "Condition",
        "id": "BSJ-NauseaAndVomiting",
        "meta": {
          "profile": [
            "http://hl7.org/fhir/us/core/StructureDefinition/us-core-condition-encounter-diagnosis"
          ]
        },
        "text": {
          "status": "extensions",
          "div": "<div xmlns=\"http://www.w3.org/1999/xhtml\"><a name=\"Condition_BSJ-NauseaAndVomiting\"> </a><p><b>Generated Narrative: Condition</b><a name=\"BSJ-NauseaAndVomiting\"> </a><a name=\"hcBSJ-NauseaAndVomiting\"> </a></p><div style=\"display: inline-block; background-color: #d9e0e7; padding: 6px; margin: 4px; border: 1px solid #8da1b4; border-radius: 5px; line-height: 60%\"><p style=\"margin-bottom: 0px\">ResourceCondition &quot;BSJ-NauseaAndVomiting&quot; </p><p style=\"margin-bottom: 0px\">Profile: <a href=\"http://hl7.org/fhir/us/core/STU6.1/StructureDefinition-us-core-condition-encounter-diagnosis.html\">US Core Condition Encounter Diagnosis Profile</a></p></div><p><b>Condition Asserted Date</b>: 2024-04-18 16:30:00-0400</p><p><b>clinicalStatus</b>: Active <span style=\"background: LightGoldenRodYellow; margin: 4px; border: 1px solid khaki\"> (<a href=\"http://terminology.hl7.org/5.4.0/CodeSystem-condition-clinical.html\">Condition Clinical Status Codes</a>#active)</span></p><p><b>verificationStatus</b>: Confirmed <span style=\"background: LightGoldenRodYellow; margin: 4px; border: 1px solid khaki\"> (<a href=\"http://terminology.hl7.org/5.4.0/CodeSystem-condition-ver-status.html\">ConditionVerificationStatus</a>#confirmed)</span></p><p><b>category</b>: Sensation of nausea <span style=\"background: LightGoldenRodYellow; margin: 4px; border: 1px solid khaki\"> (<a href=\"http://terminology.hl7.org/5.0.0/CodeSystem-ICF.html\">International Classification of Functioning, Disability and Health</a>#b5350)</span>, Encounter Diagnosis <span style=\"background: LightGoldenRodYellow; margin: 4px; border: 1px solid khaki\"> (<a href=\"http://hl7.org/fhir/us/core/STU6.1/CodeSystem-condition-category.html\">US Core Condition Category Extension Codes</a>#encounter-diagnosis)</span>, Encounter Diagnosis <span style=\"background: LightGoldenRodYellow; margin: 4px; border: 1px solid khaki\"> (<a href=\"http://terminology.hl7.org/5.4.0/CodeSystem-condition-category.html\">Condition Category Codes</a>#encounter-diagnosis)</span></p><p><b>code</b>: Nausea and Vomiting (disorder) <span style=\"background: LightGoldenRodYellow; margin: 4px; border: 1px solid khaki\"> (<a href=\"https://browser.ihtsdotools.org/\">SNOWMED CT</a>#16932000)</span></p><p><b>subject</b>: See on this page: Patient/patientBSJ1</p><p><b>onset</b>: 2024-04-18 16:30:00-0400</p><p><b>recordedDate</b>: 2024-04-18 16:30:00-0400</p><p><b>note</b>: Patient pressed call button for vomiting. She reports she started feeling nauseated about ten minutes ago.</p></div>"
        },
        "extension": [
          {
            "url": "http://hl7.org/fhir/StructureDefinition/condition-assertedDate",
            "valueDateTime": "2024-04-18T16:30:00-04:00"
          }
        ],
        "clinicalStatus": {
          "coding": [
            {
              "system": "http://terminology.hl7.org/CodeSystem/condition-clinical",
              "code": "active"
            }
          ]
        },
        "verificationStatus": {
          "coding": [
            {
              "system": "http://terminology.hl7.org/CodeSystem/condition-ver-status",
              "code": "confirmed"
            }
          ]
        },
        "category": [
          {
            "coding": [
              {
                "system": "http://hl7.org/fhir/sid/icf",
                "code": "b5350",
                "display": "Sensation of nausea"
              }
            ]
          },
          {
            "coding": [
              {
                "system": "http://hl7.org/fhir/us/core/CodeSystem/condition-category",
                "code": "encounter-diagnosis",
                "display": "Encounter Diagnosis"
              }
            ]
          },
          {
            "coding": [
              {
                "system": "http://terminology.hl7.org/CodeSystem/condition-category",
                "code": "encounter-diagnosis"
              }
            ]
          }
        ],
        "code": {
          "coding": [
            {
              "system": "http://snomed.info/sct",
              "code": "16932000",
              "display": "Nausea and Vomiting (disorder)"
            }
          ]
        },
        "subject": {
          "reference": "Patient/patientBSJ1"
        },
        "onsetDateTime": "2024-04-18T16:30:00-04:00",
        "recordedDate": "2024-04-18T16:30:00-04:00",
        "note": [
          {
            "text": "Patient pressed call button for vomiting. She reports she started feeling nauseated about ten minutes ago."
          }
        ]
      }
    },
    {
      "fullUrl": "https://gw.interop.community/MiHIN/open/Condition/BSJ-Neuropathy",
      "resource": {
        "resourceType": "Condition",
        "id": "BSJ-Neuropathy",
        "meta": {
          "profile": [
            "http://hl7.org/fhir/us/core/StructureDefinition/us-core-condition-encounter-diagnosis"
          ]
        },
        "text": {
          "status": "extensions",
          "div": "<div xmlns=\"http://www.w3.org/1999/xhtml\"><a name=\"Condition_BSJ-Neuropathy\"> </a><p><b>Generated Narrative: Condition</b><a name=\"BSJ-Neuropathy\"> </a><a name=\"hcBSJ-Neuropathy\"> </a></p><div style=\"display: inline-block; background-color: #d9e0e7; padding: 6px; margin: 4px; border: 1px solid #8da1b4; border-radius: 5px; line-height: 60%\"><p style=\"margin-bottom: 0px\">ResourceCondition &quot;BSJ-Neuropathy&quot; </p><p style=\"margin-bottom: 0px\">Profile: <a href=\"http://hl7.org/fhir/us/core/STU6.1/StructureDefinition-us-core-condition-encounter-diagnosis.html\">US Core Condition Encounter Diagnosis Profile</a></p></div><p><b>Condition Asserted Date</b>: 2020-07</p><p><b>clinicalStatus</b>: Active <span style=\"background: LightGoldenRodYellow; margin: 4px; border: 1px solid khaki\"> (<a href=\"http://terminology.hl7.org/5.4.0/CodeSystem-condition-clinical.html\">Condition Clinical Status Codes</a>#active)</span></p><p><b>verificationStatus</b>: Confirmed <span style=\"background: LightGoldenRodYellow; margin: 4px; border: 1px solid khaki\"> (<a href=\"http://terminology.hl7.org/5.4.0/CodeSystem-condition-ver-status.html\">ConditionVerificationStatus</a>#confirmed)</span></p><p><b>category</b>: Sensory functions and pain, unspecified <span style=\"background: LightGoldenRodYellow; margin: 4px; border: 1px solid khaki\"> (<a href=\"http://terminology.hl7.org/5.0.0/CodeSystem-ICF.html\">International Classification of Functioning, Disability and Health</a>#b299)</span>, Encounter Diagnosis <span style=\"background: LightGoldenRodYellow; margin: 4px; border: 1px solid khaki\"> (<a href=\"http://hl7.org/fhir/us/core/STU6.1/CodeSystem-condition-category.html\">US Core Condition Category Extension Codes</a>#encounter-diagnosis)</span>, Encounter Diagnosis <span style=\"background: LightGoldenRodYellow; margin: 4px; border: 1px solid khaki\"> (<a href=\"http://terminology.hl7.org/5.4.0/CodeSystem-condition-category.html\">Condition Category Codes</a>#encounter-diagnosis)</span></p><p><b>code</b>: Chronic painful neuropathy due to diabetes mellitus (disorder) <span style=\"background: LightGoldenRodYellow; margin: 4px; border: 1px solid khaki\"> (<a href=\"https://browser.ihtsdotools.org/\">SNOWMED CT</a>#193184006)</span></p><p><b>bodySite</b>: Both lower legs (body structure) <span style=\"background: LightGoldenRodYellow; margin: 4px; border: 1px solid khaki\"> (<a href=\"https://browser.ihtsdotools.org/\">SNOWMED CT</a>#40927001)</span></p><p><b>subject</b>: See on this page: Patient/patientBSJ1</p><p><b>asserter</b>: See on this page: PractitionerRole/Role-IMMD-AnitaChu</p></div>"
        },
        "extension": [
          {
            "url": "http://hl7.org/fhir/StructureDefinition/condition-assertedDate",
            "valueDateTime": "2020-07"
          }
        ],
        "clinicalStatus": {
          "coding": [
            {
              "system": "http://terminology.hl7.org/CodeSystem/condition-clinical",
              "code": "active"
            }
          ]
        },
        "verificationStatus": {
          "coding": [
            {
              "system": "http://terminology.hl7.org/CodeSystem/condition-ver-status",
              "code": "confirmed"
            }
          ]
        },
        "category": [
          {
            "coding": [
              {
                "system": "http://hl7.org/fhir/sid/icf",
                "code": "b299",
                "display": "Sensory functions and pain, unspecified"
              }
            ]
          },
          {
            "coding": [
              {
                "system": "http://hl7.org/fhir/us/core/CodeSystem/condition-category",
                "code": "encounter-diagnosis",
                "display": "Encounter Diagnosis"
              }
            ]
          },
          {
            "coding": [
              {
                "system": "http://terminology.hl7.org/CodeSystem/condition-category",
                "code": "encounter-diagnosis"
              }
            ]
          }
        ],
        "code": {
          "coding": [
            {
              "system": "http://snomed.info/sct",
              "code": "193184006",
              "display": "Chronic painful neuropathy due to diabetes mellitus (disorder)"
            }
          ]
        },
        "bodySite": [
          {
            "coding": [
              {
                "system": "http://snomed.info/sct",
                "code": "40927001",
                "display": "Both lower legs (body structure)"
              }
            ]
          }
        ],
        "subject": {
          "reference": "Patient/patientBSJ1"
        },
        "asserter": {
          "reference": "PractitionerRole/Role-IMMD-AnitaChu"
        }
      }
    },
    {
      "fullUrl": "https://gw.interop.community/MiHIN/open/Condition/BSJ-StrokeDiagnosis",
      "resource": {
        "resourceType": "Condition",
        "id": "BSJ-StrokeDiagnosis",
        "meta": {
          "profile": [
            "http://hl7.org/fhir/us/core/StructureDefinition/us-core-condition-encounter-diagnosis"
          ]
        },
        "text": {
          "status": "extensions",
          "div": "<div xmlns=\"http://www.w3.org/1999/xhtml\"><a name=\"Condition_BSJ-StrokeDiagnosis\"> </a><p><b>Generated Narrative: Condition</b><a name=\"BSJ-StrokeDiagnosis\"> </a><a name=\"hcBSJ-StrokeDiagnosis\"> </a></p><div style=\"display: inline-block; background-color: #d9e0e7; padding: 6px; margin: 4px; border: 1px solid #8da1b4; border-radius: 5px; line-height: 60%\"><p style=\"margin-bottom: 0px\">ResourceCondition &quot;BSJ-StrokeDiagnosis&quot; </p><p style=\"margin-bottom: 0px\">Profile: <a href=\"http://hl7.org/fhir/us/core/STU6.1/StructureDefinition-us-core-condition-encounter-diagnosis.html\">US Core Condition Encounter Diagnosis Profile</a></p></div><p><b>Condition Asserted Date</b>: 2024-04-17 15:40:00-0400</p><p><b>clinicalStatus</b>: Active <span style=\"background: LightGoldenRodYellow; margin: 4px; border: 1px solid khaki\"> (<a href=\"http://terminology.hl7.org/5.4.0/CodeSystem-condition-clinical.html\">Condition Clinical Status Codes</a>#active)</span></p><p><b>verificationStatus</b>: Confirmed <span style=\"background: LightGoldenRodYellow; margin: 4px; border: 1px solid khaki\"> (<a href=\"http://terminology.hl7.org/5.4.0/CodeSystem-condition-ver-status.html\">ConditionVerificationStatus</a>#confirmed)</span></p><p><b>category</b>: Structure of cortical lobes, unspecified <span style=\"background: LightGoldenRodYellow; margin: 4px; border: 1px solid khaki\"> (<a href=\"http://terminology.hl7.org/5.0.0/CodeSystem-ICF.html\">International Classification of Functioning, Disability and Health</a>#s11009)</span>, Encounter Diagnosis <span style=\"background: LightGoldenRodYellow; margin: 4px; border: 1px solid khaki\"> (<a href=\"http://hl7.org/fhir/us/core/STU6.1/CodeSystem-condition-category.html\">US Core Condition Category Extension Codes</a>#encounter-diagnosis)</span>, Encounter Diagnosis <span style=\"background: LightGoldenRodYellow; margin: 4px; border: 1px solid khaki\"> (<a href=\"http://terminology.hl7.org/5.4.0/CodeSystem-condition-category.html\">Condition Category Codes</a>#encounter-diagnosis)</span></p><p><b>code</b>: Ischemic Stroke (disorder) <span style=\"background: LightGoldenRodYellow; margin: 4px; border: 1px solid khaki\"> (<a href=\"https://browser.ihtsdotools.org/\">SNOWMED CT</a>#422504002)</span></p><p><b>bodySite</b>: Structure of middle cerebral artery M1 segment (body structure) <span style=\"background: LightGoldenRodYellow; margin: 4px; border: 1px solid khaki\"> (<a href=\"https://browser.ihtsdotools.org/\">SNOWMED CT</a>#414722000)</span>, Left <span style=\"background: LightGoldenRodYellow; margin: 4px; border: 1px solid khaki\"> (<a href=\"https://browser.ihtsdotools.org/\">SNOWMED CT</a>#7771000)</span></p><p><b>subject</b>: See on this page: Patient/patientBSJ1</p><p><b>onset</b>: 2024-04-17 15:40:00-0400</p><p><b>recordedDate</b>: 2023-12-15 18:40:00-0400</p><p><b>asserter</b>: See on this page: PractitionerRole/Role-Neuro-NuraMekel</p><p><b>note</b>: Partial occlusion of MCA. Stroke event witnessed. EMS response / patient arrived within 45 minutes of symptom onset. Verified by CT with contrast. tPA administered within 2 hours of symptom onset.</p></div>"
        },
        "extension": [
          {
            "url": "http://hl7.org/fhir/StructureDefinition/condition-assertedDate",
            "valueDateTime": "2024-04-17T15:40:00-04:00"
          }
        ],
        "clinicalStatus": {
          "coding": [
            {
              "system": "http://terminology.hl7.org/CodeSystem/condition-clinical",
              "code": "active"
            }
          ]
        },
        "verificationStatus": {
          "coding": [
            {
              "system": "http://terminology.hl7.org/CodeSystem/condition-ver-status",
              "code": "confirmed"
            }
          ]
        },
        "category": [
          {
            "coding": [
              {
                "system": "http://hl7.org/fhir/sid/icf",
                "code": "s11009",
                "display": "Structure of cortical lobes, unspecified"
              }
            ]
          },
          {
            "coding": [
              {
                "system": "http://hl7.org/fhir/us/core/CodeSystem/condition-category",
                "code": "encounter-diagnosis",
                "display": "Encounter Diagnosis"
              }
            ]
          },
          {
            "coding": [
              {
                "system": "http://terminology.hl7.org/CodeSystem/condition-category",
                "code": "encounter-diagnosis"
              }
            ]
          }
        ],
        "code": {
          "coding": [
            {
              "system": "http://snomed.info/sct",
              "code": "422504002",
              "display": "Ischemic Stroke (disorder)"
            }
          ]
        },
        "bodySite": [
          {
            "coding": [
              {
                "system": "http://snomed.info/sct",
                "code": "414722000",
                "display": "Structure of middle cerebral artery M1 segment (body structure)"
              }
            ]
          },
          {
            "coding": [
              {
                "system": "http://snomed.info/sct",
                "code": "7771000",
                "display": "Left"
              }
            ]
          }
        ],
        "subject": {
          "reference": "Patient/patientBSJ1"
        },
        "onsetDateTime": "2024-04-17T15:40:00-04:00",
        "recordedDate": "2023-12-15T18:40:00-04:00",
        "asserter": {
          "reference": "PractitionerRole/Role-Neuro-NuraMekel"
        },
        "note": [
          {
            "text": "Partial occlusion of MCA. Stroke event witnessed. EMS response / patient arrived within 45 minutes of symptom onset. Verified by CT with contrast. tPA administered within 2 hours of symptom onset."
          }
        ]
      }
    },
    {
      "fullUrl": "https://gw.interop.community/MiHIN/open/Condition/BSJ-UndressingConcern",
      "resource": {
        "resourceType": "Condition",
        "id": "BSJ-UndressingConcern",
        "meta": {
          "profile": [
            "http://hl7.org/fhir/us/core/StructureDefinition/us-core-condition-problems-health-concerns"
          ]
        },
        "text": {
          "status": "generated",
          "div": "<div xmlns=\"http://www.w3.org/1999/xhtml\"><a name=\"Condition_BSJ-UndressingConcern\"> </a><p><b>Generated Narrative: Condition</b><a name=\"BSJ-UndressingConcern\"> </a><a name=\"hcBSJ-UndressingConcern\"> </a></p><div style=\"display: inline-block; background-color: #d9e0e7; padding: 6px; margin: 4px; border: 1px solid #8da1b4; border-radius: 5px; line-height: 60%\"><p style=\"margin-bottom: 0px\">ResourceCondition &quot;BSJ-UndressingConcern&quot; </p><p style=\"margin-bottom: 0px\">Profile: <a href=\"http://hl7.org/fhir/us/core/STU6.1/StructureDefinition-us-core-condition-problems-health-concerns.html\">US Core Condition Problems and Health Concerns Profile</a></p></div><p><b>clinicalStatus</b>: Active <span style=\"background: LightGoldenRodYellow; margin: 4px; border: 1px solid khaki\"> (<a href=\"http://terminology.hl7.org/5.4.0/CodeSystem-condition-clinical.html\">Condition Clinical Status Codes</a>#active)</span></p><p><b>verificationStatus</b>: Confirmed <span style=\"background: LightGoldenRodYellow; margin: 4px; border: 1px solid khaki\"> (<a href=\"http://terminology.hl7.org/5.4.0/CodeSystem-condition-ver-status.html\">ConditionVerificationStatus</a>#confirmed)</span></p><p><b>category</b>: Coordination of voluntary movements <span style=\"background: LightGoldenRodYellow; margin: 4px; border: 1px solid khaki\"> (<a href=\"http://terminology.hl7.org/5.0.0/CodeSystem-ICF.html\">International Classification of Functioning, Disability and Health</a>#b7602)</span>, Health Concern <span style=\"background: LightGoldenRodYellow; margin: 4px; border: 1px solid khaki\"> (<a href=\"http://hl7.org/fhir/us/core/STU6.1/CodeSystem-condition-category.html\">US Core Condition Category Extension Codes</a>#health-concern)</span>, Functional Status <span style=\"background: LightGoldenRodYellow; margin: 4px; border: 1px solid khaki\"> (<a href=\"http://hl7.org/fhir/us/core/STU6.1/CodeSystem-us-core-category.html\">US Core Category</a>#functional-status)</span></p><p><b>code</b>: Difficulty undressing (finding) <span style=\"background: LightGoldenRodYellow; margin: 4px; border: 1px solid khaki\"> (<a href=\"https://browser.ihtsdotools.org/\">SNOWMED CT</a>#284989005)</span></p><p><b>subject</b>: See on this page: Patient/patientBSJ1</p><p><b>recordedDate</b>: 2024-04-27 15:40:00-0400</p><p><b>asserter</b>: See on this page: PractitionerRole/Role-OT-JenCadbury</p><p><b>note</b>: Betsy is frustrated, embarrassed, and worried about not being able to undress herself</p></div>"
        },
        "clinicalStatus": {
          "coding": [
            {
              "system": "http://terminology.hl7.org/CodeSystem/condition-clinical",
              "code": "active"
            }
          ]
        },
        "verificationStatus": {
          "coding": [
            {
              "system": "http://terminology.hl7.org/CodeSystem/condition-ver-status",
              "code": "confirmed"
            }
          ]
        },
        "category": [
          {
            "coding": [
              {
                "system": "http://hl7.org/fhir/sid/icf",
                "code": "b7602",
                "display": "Coordination of voluntary movements"
              }
            ]
          },
          {
            "coding": [
              {
                "system": "http://hl7.org/fhir/us/core/CodeSystem/condition-category",
                "code": "health-concern",
                "display": "Health Concern"
              }
            ]
          },
          {
            "coding": [
              {
                "system": "http://hl7.org/fhir/us/core/CodeSystem/us-core-category",
                "code": "functional-status",
                "display": "Functional Status"
              }
            ]
          }
        ],
        "code": {
          "coding": [
            {
              "system": "http://snomed.info/sct",
              "code": "284989005",
              "display": "Difficulty undressing (finding)"
            }
          ]
        },
        "subject": {
          "reference": "Patient/patientBSJ1"
        },
        "recordedDate": "2024-04-27T15:40:00-04:00",
        "asserter": {
          "reference": "PractitionerRole/Role-OT-JenCadbury"
        },
        "note": [
          {
            "text": "Betsy is frustrated, embarrassed, and worried about not being able to undress herself"
          }
        ]
      }
    },
    {
      "fullUrl": "https://gw.interop.community/MiHIN/open/Condition/OT-ProblemList-Decondition",
      "resource": {
        "resourceType": "Condition",
        "id": "OT-ProblemList-Decondition",
        "meta": {
          "profile": [
            "http://hl7.org/fhir/us/core/StructureDefinition/us-core-condition-problems-health-concerns"
          ]
        },
        "text": {
          "status": "extensions",
          "div": "<div xmlns=\"http://www.w3.org/1999/xhtml\"><a name=\"Condition_OT-ProblemList-Decondition\"> </a><p><b>Generated Narrative: Condition</b><a name=\"OT-ProblemList-Decondition\"> </a><a name=\"hcOT-ProblemList-Decondition\"> </a></p><div style=\"display: inline-block; background-color: #d9e0e7; padding: 6px; margin: 4px; border: 1px solid #8da1b4; border-radius: 5px; line-height: 60%\"><p style=\"margin-bottom: 0px\">ResourceCondition &quot;OT-ProblemList-Decondition&quot; </p><p style=\"margin-bottom: 0px\">Profile: <a href=\"http://hl7.org/fhir/us/core/STU6.1/StructureDefinition-us-core-condition-problems-health-concerns.html\">US Core Condition Problems and Health Concerns Profile</a></p></div><p><b>Condition Asserted Date</b>: 2024-04-30 15:40:00-0400</p><p><b>clinicalStatus</b>: Active <span style=\"background: LightGoldenRodYellow; margin: 4px; border: 1px solid khaki\"> (<a href=\"http://terminology.hl7.org/5.4.0/CodeSystem-condition-clinical.html\">Condition Clinical Status Codes</a>#active)</span></p><p><b>verificationStatus</b>: Confirmed <span style=\"background: LightGoldenRodYellow; margin: 4px; border: 1px solid khaki\"> (<a href=\"http://terminology.hl7.org/5.4.0/CodeSystem-condition-ver-status.html\">ConditionVerificationStatus</a>#confirmed)</span></p><p><b>category</b>: Power of muscles in lower half of the body <span style=\"background: LightGoldenRodYellow; margin: 4px; border: 1px solid khaki\"> (<a href=\"http://terminology.hl7.org/5.0.0/CodeSystem-ICF.html\">International Classification of Functioning, Disability and Health</a>#b7303)</span>, Problem List Item <span style=\"background: LightGoldenRodYellow; margin: 4px; border: 1px solid khaki\"> (<a href=\"http://hl7.org/fhir/us/core/STU6.1/CodeSystem-condition-category.html\">US Core Condition Category Extension Codes</a>#problem-list-item)</span>, Functional Status <span style=\"background: LightGoldenRodYellow; margin: 4px; border: 1px solid khaki\"> (<a href=\"http://hl7.org/fhir/us/core/STU6.1/CodeSystem-us-core-category.html\">US Core Category</a>#functional-status)</span></p><p><b>code</b>: Physical deconditioning (finding) <span style=\"background: LightGoldenRodYellow; margin: 4px; border: 1px solid khaki\"> (<a href=\"https://browser.ihtsdotools.org/\">SNOWMED CT</a>#31031000119102)</span></p><p><b>bodySite</b>: Entire lower body (body structure) <span style=\"background: LightGoldenRodYellow; margin: 4px; border: 1px solid khaki\"> (<a href=\"https://browser.ihtsdotools.org/\">SNOWMED CT</a>#362875007)</span></p><p><b>subject</b>: See on this page: Patient/patientBSJ1</p><p><b>onset</b>: 2024-04-26 15:40:00-0400</p><p><b>recordedDate</b>: 2024-04-30 15:40:00-0400</p><p><b>asserter</b>: See on this page: PractitionerRole/Role-OT-JenCadbury</p><blockquote><p><b>evidence</b></p><p><b>detail</b>: See on this page: Observation/BSJ-MDS-ShortWalk1</p></blockquote><blockquote><p><b>evidence</b></p><p><b>detail</b>: See on this page: Observation/BSJ-MDS-SitStand1</p></blockquote><blockquote><p><b>evidence</b></p><p><b>detail</b>: See on this page: Observation/BSJ-MDS-SitUp1</p></blockquote><p><b>note</b>: The weakness in the patient's lower extremities is secondary to deconditioning. According to the report from Neurology, patient did not have motor or sensory deficits below upper chest. High rehab potential.</p></div>"
        },
        "extension": [
          {
            "url": "http://hl7.org/fhir/StructureDefinition/condition-assertedDate",
            "valueDateTime": "2024-04-30T15:40:00-04:00"
          }
        ],
        "clinicalStatus": {
          "coding": [
            {
              "system": "http://terminology.hl7.org/CodeSystem/condition-clinical",
              "code": "active"
            }
          ]
        },
        "verificationStatus": {
          "coding": [
            {
              "system": "http://terminology.hl7.org/CodeSystem/condition-ver-status",
              "code": "confirmed"
            }
          ]
        },
        "category": [
          {
            "coding": [
              {
                "system": "http://hl7.org/fhir/sid/icf",
                "code": "b7303",
                "display": "Power of muscles in lower half of the body"
              }
            ]
          },
          {
            "coding": [
              {
                "system": "http://hl7.org/fhir/us/core/CodeSystem/condition-category",
                "code": "problem-list-item",
                "display": "Problem List Item"
              }
            ]
          },
          {
            "coding": [
              {
                "system": "http://hl7.org/fhir/us/core/CodeSystem/us-core-category",
                "code": "functional-status",
                "display": "Functional Status"
              }
            ]
          }
        ],
        "code": {
          "coding": [
            {
              "system": "http://snomed.info/sct",
              "code": "31031000119102",
              "display": "Physical deconditioning (finding)"
            }
          ]
        },
        "bodySite": [
          {
            "coding": [
              {
                "system": "http://snomed.info/sct",
                "code": "362875007",
                "display": "Entire lower body (body structure)"
              }
            ]
          }
        ],
        "subject": {
          "reference": "Patient/patientBSJ1"
        },
        "onsetDateTime": "2024-04-26T15:40:00-04:00",
        "recordedDate": "2024-04-30T15:40:00-04:00",
        "asserter": {
          "reference": "PractitionerRole/Role-OT-JenCadbury"
        },
        "evidence": [
          {
            "detail": [
              {
                "reference": "Observation/BSJ-MDS-ShortWalk1"
              }
            ]
          },
          {
            "detail": [
              {
                "reference": "Observation/BSJ-MDS-SitStand1"
              }
            ]
          },
          {
            "detail": [
              {
                "reference": "Observation/BSJ-MDS-SitUp1"
              }
            ]
          }
        ],
        "note": [
          {
            "text": "The weakness in the patient's lower extremities is secondary to deconditioning. According to the report from Neurology, patient did not have motor or sensory deficits below upper chest. High rehab potential."
          }
        ]
      }
    },
    {
      "fullUrl": "https://gw.interop.community/MiHIN/open/Condition/OT-ProblemList-RightWeak",
      "resource": {
        "resourceType": "Condition",
        "id": "OT-ProblemList-RightWeak",
        "meta": {
          "profile": [
            "http://hl7.org/fhir/us/core/StructureDefinition/us-core-condition-problems-health-concerns"
          ]
        },
        "text": {
          "status": "extensions",
          "div": "<div xmlns=\"http://www.w3.org/1999/xhtml\"><a name=\"Condition_OT-ProblemList-RightWeak\"> </a><p><b>Generated Narrative: Condition</b><a name=\"OT-ProblemList-RightWeak\"> </a><a name=\"hcOT-ProblemList-RightWeak\"> </a></p><div style=\"display: inline-block; background-color: #d9e0e7; padding: 6px; margin: 4px; border: 1px solid #8da1b4; border-radius: 5px; line-height: 60%\"><p style=\"margin-bottom: 0px\">ResourceCondition &quot;OT-ProblemList-RightWeak&quot; </p><p style=\"margin-bottom: 0px\">Profile: <a href=\"http://hl7.org/fhir/us/core/STU6.1/StructureDefinition-us-core-condition-problems-health-concerns.html\">US Core Condition Problems and Health Concerns Profile</a></p></div><p><b>Condition Asserted Date</b>: 2024-04-17 15:40:00-0400</p><p><b>clinicalStatus</b>: Active <span style=\"background: LightGoldenRodYellow; margin: 4px; border: 1px solid khaki\"> (<a href=\"http://terminology.hl7.org/5.4.0/CodeSystem-condition-clinical.html\">Condition Clinical Status Codes</a>#active)</span></p><p><b>verificationStatus</b>: Confirmed <span style=\"background: LightGoldenRodYellow; margin: 4px; border: 1px solid khaki\"> (<a href=\"http://terminology.hl7.org/5.4.0/CodeSystem-condition-ver-status.html\">ConditionVerificationStatus</a>#confirmed)</span></p><p><b>category</b>: Power of muscles of one limb <span style=\"background: LightGoldenRodYellow; margin: 4px; border: 1px solid khaki\"> (<a href=\"http://terminology.hl7.org/5.0.0/CodeSystem-ICF.html\">International Classification of Functioning, Disability and Health</a>#b7301)</span>, Problem List Item <span style=\"background: LightGoldenRodYellow; margin: 4px; border: 1px solid khaki\"> (<a href=\"http://hl7.org/fhir/us/core/STU6.1/CodeSystem-condition-category.html\">US Core Condition Category Extension Codes</a>#problem-list-item)</span>, Functional Status <span style=\"background: LightGoldenRodYellow; margin: 4px; border: 1px solid khaki\"> (<a href=\"http://hl7.org/fhir/us/core/STU6.1/CodeSystem-us-core-category.html\">US Core Category</a>#functional-status)</span></p><p><b>code</b>: Weakness of right upper limb (finding) <span style=\"background: LightGoldenRodYellow; margin: 4px; border: 1px solid khaki\"> (<a href=\"https://browser.ihtsdotools.org/\">SNOWMED CT</a>#570961000124101)</span></p><p><b>bodySite</b>: Right upper arm structure (body structure) <span style=\"background: LightGoldenRodYellow; margin: 4px; border: 1px solid khaki\"> (<a href=\"https://browser.ihtsdotools.org/\">SNOWMED CT</a>#368209003)</span></p><p><b>subject</b>: See on this page: Patient/patientBSJ1</p><p><b>recordedDate</b>: 2024-04-27 15:40:00-0400</p><p><b>asserter</b>: See on this page: PractitionerRole/Role-OT-JenCadbury</p><h3>Evidences</h3><table class=\"grid\"><tr><td style=\"display: none\">-</td><td><b>Detail</b></td></tr><tr><td style=\"display: none\">*</td><td>See on this page: Condition/BSJ-HemiparesisDiagnosis</td></tr></table><p><b>note</b>: The weakness and lack of coordination in the patient's right shoulder, arm, and hand are secondary to the stroke. PT/OT from SNF report improvements to rotator cuff strength over last month.</p></div>"
        },
        "extension": [
          {
            "url": "http://hl7.org/fhir/StructureDefinition/condition-assertedDate",
            "valueDateTime": "2024-04-17T15:40:00-04:00"
          }
        ],
        "clinicalStatus": {
          "coding": [
            {
              "system": "http://terminology.hl7.org/CodeSystem/condition-clinical",
              "code": "active"
            }
          ]
        },
        "verificationStatus": {
          "coding": [
            {
              "system": "http://terminology.hl7.org/CodeSystem/condition-ver-status",
              "code": "confirmed"
            }
          ]
        },
        "category": [
          {
            "coding": [
              {
                "system": "http://hl7.org/fhir/sid/icf",
                "code": "b7301",
                "display": "Power of muscles of one limb"
              }
            ]
          },
          {
            "coding": [
              {
                "system": "http://hl7.org/fhir/us/core/CodeSystem/condition-category",
                "code": "problem-list-item",
                "display": "Problem List Item"
              }
            ]
          },
          {
            "coding": [
              {
                "system": "http://hl7.org/fhir/us/core/CodeSystem/us-core-category",
                "code": "functional-status",
                "display": "Functional Status"
              }
            ]
          }
        ],
        "code": {
          "coding": [
            {
              "system": "http://snomed.info/sct",
              "code": "570961000124101",
              "display": "Weakness of right upper limb (finding)"
            }
          ]
        },
        "bodySite": [
          {
            "coding": [
              {
                "system": "http://snomed.info/sct",
                "code": "368209003",
                "display": "Right upper arm structure (body structure)"
              }
            ]
          }
        ],
        "subject": {
          "reference": "Patient/patientBSJ1"
        },
        "recordedDate": "2024-04-27T15:40:00-04:00",
        "asserter": {
          "reference": "PractitionerRole/Role-OT-JenCadbury"
        },
        "evidence": [
          {
            "detail": [
              {
                "reference": "Condition/BSJ-HemiparesisDiagnosis"
              }
            ]
          }
        ],
        "note": [
          {
            "text": "The weakness and lack of coordination in the patient's right shoulder, arm, and hand are secondary to the stroke. PT/OT from SNF report improvements to rotator cuff strength over last month."
          }
        ]
      }
    },
    {
      "fullUrl": "https://gw.interop.community/MiHIN/open/Observation/BSJ-MDS-Activities-PT1",
      "resource": {
        "resourceType": "Observation",
        "id": "BSJ-MDS-Activities-PT1",
        "meta": {
          "profile": [
            "http://hl7.org/fhir/us/pacio-pfe/StructureDefinition/pfe-collection"
          ]
        },
        "text": {
          "status": "extensions",
          "div": "<div xmlns=\"http://www.w3.org/1999/xhtml\"><a name=\"Observation_BSJ-MDS-Activities-PT1\"> </a><p><b>Generated Narrative: Observation</b><a name=\"BSJ-MDS-Activities-PT1\"> </a><a name=\"hcBSJ-MDS-Activities-PT1\"> </a></p><div style=\"display: inline-block; background-color: #d9e0e7; padding: 6px; margin: 4px; border: 1px solid #8da1b4; border-radius: 5px; line-height: 60%\"><p style=\"margin-bottom: 0px\">ResourceObservation &quot;BSJ-MDS-Activities-PT1&quot; </p><p style=\"margin-bottom: 0px\">Profile: <a href=\"http://hl7.org/fhir/us/pacio-pfe/STU1/StructureDefinition-pfe-collection.html\">Personal Functioning and Engagement Collection</a></p></div><p><b>Event Location</b>: See on this page: Location/org-Loc-SNF-Happy-Nursing-Facility</p><p><b>status</b>: final</p><p><b>category</b>: Self-care <span style=\"background: LightGoldenRodYellow; margin: 4px; border: 1px solid khaki\"> (<a href=\"http://hl7.org/fhir/us/pacio-pfe/STU1/CodeSystem-pfe-category-cs.html\">Personal Functioning and Engagement Category</a>#blockl2-d51)</span>, Survey <span style=\"background: LightGoldenRodYellow; margin: 4px; border: 1px solid khaki\"> (<a href=\"http://terminology.hl7.org/5.4.0/CodeSystem-observation-category.html\">Observation Category Codes</a>#survey)</span>, Functioning <span style=\"background: LightGoldenRodYellow; margin: 4px; border: 1px solid khaki\"> (<a href=\"http://hl7.org/fhir/us/pacio-pfe/STU1/CodeSystem-pfe-functioning-cs.html\">Personal Functioning and Engagement Functioning Category Code System</a>#functioning)</span></p><p><b>code</b>: MDS v3.0 - RAI v1.18.11 - Nursing home discharge (ND) item set during assessment period [CMS Assessment] <span style=\"background: LightGoldenRodYellow; margin: 4px; border: 1px solid khaki\"> (<a href=\"https://loinc.org/\">LOINC</a>#101107-1)</span></p><p><b>subject</b>: See on this page: Patient/patientBSJ1</p><p><b>effective</b>: 2024-05-16 14:30:00-0400</p><p><b>performer</b>: See on this page: PractitionerRole/Role-OT-JenCadbury</p><p><b>hasMember</b>: </p><ul><li>See on this page: Observation/BSJ-MDS-Donning1</li><li>See on this page: Observation/BSJ-MDS-Doffing1</li></ul></div>"
        },
        "extension": [
          {
            "url": "http://hl7.org/fhir/StructureDefinition/event-location",
            "valueReference": {
              "reference": "Location/org-Loc-SNF-Happy-Nursing-Facility"
            }
          }
        ],
        "status": "final",
        "category": [
          {
            "coding": [
              {
                "system": "http://hl7.org/fhir/us/pacio-pfe/CodeSystem/pfe-category-cs",
                "code": "blockl2-d51",
                "display": "Self-care"
              }
            ]
          },
          {
            "coding": [
              {
                "system": "http://terminology.hl7.org/CodeSystem/observation-category",
                "code": "survey"
              }
            ]
          },
          {
            "coding": [
              {
                "system": "http://hl7.org/fhir/us/pacio-pfe/CodeSystem/pfe-functioning-cs",
                "code": "functioning",
                "display": "Functioning"
              }
            ]
          }
        ],
        "code": {
          "coding": [
            {
              "system": "http://loinc.org",
              "code": "101107-1",
              "display": "MDS v3.0 - RAI v1.18.11 - Nursing home discharge (ND) item set during assessment period [CMS Assessment]"
            }
          ]
        },
        "subject": {
          "reference": "Patient/patientBSJ1"
        },
        "effectiveDateTime": "2024-05-16T14:30:00-04:00",
        "performer": [
          {
            "reference": "PractitionerRole/Role-OT-JenCadbury"
          }
        ],
        "hasMember": [
          {
            "reference": "Observation/BSJ-MDS-Donning1"
          },
          {
            "reference": "Observation/BSJ-MDS-Doffing1"
          }
        ]
      }
    },
    {
      "fullUrl": "https://gw.interop.community/MiHIN/open/Observation/BSJ-MDS-Doffing1",
      "resource": {
        "resourceType": "Observation",
        "id": "BSJ-MDS-Doffing1",
        "meta": {
          "profile": [
            "http://hl7.org/fhir/us/pacio-pfe/StructureDefinition/pfe-observation-single"
          ]
        },
        "text": {
          "status": "extensions",
          "div": "<div xmlns=\"http://www.w3.org/1999/xhtml\"><a name=\"Observation_BSJ-MDS-Doffing1\"> </a><p><b>Generated Narrative: Observation</b><a name=\"BSJ-MDS-Doffing1\"> </a><a name=\"hcBSJ-MDS-Doffing1\"> </a></p><div style=\"display: inline-block; background-color: #d9e0e7; padding: 6px; margin: 4px; border: 1px solid #8da1b4; border-radius: 5px; line-height: 60%\"><p style=\"margin-bottom: 0px\">ResourceObservation &quot;BSJ-MDS-Doffing1&quot; </p><p style=\"margin-bottom: 0px\">Profile: <a href=\"http://hl7.org/fhir/us/pacio-pfe/STU1/StructureDefinition-pfe-observation-single.html\">Personal Functioning and Engagement Single Observation</a></p></div><p><b>Event Location</b>: See on this page: Location/org-Loc-SNF-Happy-Nursing-Facility</p><p><b>status</b>: final</p><p><b>category</b>: Taking Off Clothes <span style=\"background: LightGoldenRodYellow; margin: 4px; border: 1px solid khaki\"> (<a href=\"http://hl7.org/fhir/us/pacio-pfe/STU1/CodeSystem-pfe-category-cs.html\">Personal Functioning and Engagement Category</a>#d5401)</span>, Survey <span style=\"background: LightGoldenRodYellow; margin: 4px; border: 1px solid khaki\"> (<a href=\"http://terminology.hl7.org/5.4.0/CodeSystem-observation-category.html\">Observation Category Codes</a>#survey)</span>, Functioning <span style=\"background: LightGoldenRodYellow; margin: 4px; border: 1px solid khaki\"> (<a href=\"http://hl7.org/fhir/us/pacio-pfe/STU1/CodeSystem-pfe-functioning-cs.html\">Personal Functioning and Engagement Functioning Category Code System</a>#functioning)</span></p><p><b>code</b>: Upper body dressing - functional goal during assessment period [CMS Assessment] <span style=\"background: LightGoldenRodYellow; margin: 4px; border: 1px solid khaki\"> (<a href=\"https://loinc.org/\">LOINC</a>#89387-5)</span></p><p><b>subject</b>: See on this page: Patient/patientBSJ1</p><p><b>effective</b>: 2024-05-16 14:30:00-0400</p><p><b>performer</b>: See on this page: PractitionerRole/Role-OT-JenCadbury</p><p><b>value</b>: Dependent - Helper does all of the effort. Resident does none of the effort to complete the activity. Or, the assistance of 2 or more helpers is required for the resident to complete the activity. <span style=\"background: LightGoldenRodYellow; margin: 4px; border: 1px solid khaki\"> (<a href=\"https://loinc.org/\">LOINC</a>#LA27998-6)</span></p></div>"
        },
        "extension": [
          {
            "url": "http://hl7.org/fhir/StructureDefinition/event-location",
            "valueReference": {
              "reference": "Location/org-Loc-SNF-Happy-Nursing-Facility"
            }
          }
        ],
        "status": "final",
        "category": [
          {
            "coding": [
              {
                "system": "http://hl7.org/fhir/us/pacio-pfe/CodeSystem/pfe-category-cs",
                "code": "d5401",
                "display": "Taking Off Clothes"
              }
            ]
          },
          {
            "coding": [
              {
                "system": "http://terminology.hl7.org/CodeSystem/observation-category",
                "code": "survey"
              }
            ]
          },
          {
            "coding": [
              {
                "system": "http://hl7.org/fhir/us/pacio-pfe/CodeSystem/pfe-functioning-cs",
                "code": "functioning",
                "display": "Functioning"
              }
            ]
          }
        ],
        "code": {
          "coding": [
            {
              "system": "http://loinc.org",
              "code": "89387-5",
              "display": "Upper body dressing - functional goal during assessment period [CMS Assessment]"
            }
          ]
        },
        "subject": {
          "reference": "Patient/patientBSJ1"
        },
        "effectiveDateTime": "2024-05-16T14:30:00-04:00",
        "performer": [
          {
            "reference": "PractitionerRole/Role-OT-JenCadbury"
          }
        ],
        "valueCodeableConcept": {
          "coding": [
            {
              "system": "http://loinc.org",
              "code": "LA27998-6",
              "display": "Dependent - Helper does all of the effort. Resident does none of the effort to complete the activity. Or, the assistance of 2 or more helpers is required for the resident to complete the activity."
            }
          ]
        }
      }
    },
    {
      "fullUrl": "https://gw.interop.community/MiHIN/open/Observation/BSJ-MDS-Donning1",
      "resource": {
        "resourceType": "Observation",
        "id": "BSJ-MDS-Donning1",
        "meta": {
          "profile": [
            "http://hl7.org/fhir/us/pacio-pfe/StructureDefinition/pfe-observation-single"
          ]
        },
        "text": {
          "status": "extensions",
          "div": "<div xmlns=\"http://www.w3.org/1999/xhtml\"><a name=\"Observation_BSJ-MDS-Donning1\"> </a><p><b>Generated Narrative: Observation</b><a name=\"BSJ-MDS-Donning1\"> </a><a name=\"hcBSJ-MDS-Donning1\"> </a></p><div style=\"display: inline-block; background-color: #d9e0e7; padding: 6px; margin: 4px; border: 1px solid #8da1b4; border-radius: 5px; line-height: 60%\"><p style=\"margin-bottom: 0px\">ResourceObservation &quot;BSJ-MDS-Donning1&quot; </p><p style=\"margin-bottom: 0px\">Profile: <a href=\"http://hl7.org/fhir/us/pacio-pfe/STU1/StructureDefinition-pfe-observation-single.html\">Personal Functioning and Engagement Single Observation</a></p></div><p><b>Event Location</b>: See on this page: Location/org-Loc-SNF-Happy-Nursing-Facility</p><p><b>status</b>: final</p><p><b>category</b>: Putting On Clothes <span style=\"background: LightGoldenRodYellow; margin: 4px; border: 1px solid khaki\"> (<a href=\"http://hl7.org/fhir/us/pacio-pfe/STU1/CodeSystem-pfe-category-cs.html\">Personal Functioning and Engagement Category</a>#d5400)</span>, Survey <span style=\"background: LightGoldenRodYellow; margin: 4px; border: 1px solid khaki\"> (<a href=\"http://terminology.hl7.org/5.4.0/CodeSystem-observation-category.html\">Observation Category Codes</a>#survey)</span>, Functioning <span style=\"background: LightGoldenRodYellow; margin: 4px; border: 1px solid khaki\"> (<a href=\"http://hl7.org/fhir/us/pacio-pfe/STU1/CodeSystem-pfe-functioning-cs.html\">Personal Functioning and Engagement Functioning Category Code System</a>#functioning)</span></p><p><b>code</b>: Lower body dressing - functional goal during assessment period [CMS Assessment] <span style=\"background: LightGoldenRodYellow; margin: 4px; border: 1px solid khaki\"> (<a href=\"https://loinc.org/\">LOINC</a>#89406-3)</span></p><p><b>subject</b>: See on this page: Patient/patientBSJ1</p><p><b>effective</b>: 2024-05-16 14:30:00-0400</p><p><b>performer</b>: See on this page: PractitionerRole/Role-OT-JenCadbury</p><p><b>value</b>: Dependent - Helper does all of the effort. Resident does none of the effort to complete the activity. Or, the assistance of 2 or more helpers is required for the resident to complete the activity. <span style=\"background: LightGoldenRodYellow; margin: 4px; border: 1px solid khaki\"> (<a href=\"https://loinc.org/\">LOINC</a>#LA27998-6)</span></p></div>"
        },
        "extension": [
          {
            "url": "http://hl7.org/fhir/StructureDefinition/event-location",
            "valueReference": {
              "reference": "Location/org-Loc-SNF-Happy-Nursing-Facility"
            }
          }
        ],
        "status": "final",
        "category": [
          {
            "coding": [
              {
                "system": "http://hl7.org/fhir/us/pacio-pfe/CodeSystem/pfe-category-cs",
                "code": "d5400",
                "display": "Putting On Clothes"
              }
            ]
          },
          {
            "coding": [
              {
                "system": "http://terminology.hl7.org/CodeSystem/observation-category",
                "code": "survey"
              }
            ]
          },
          {
            "coding": [
              {
                "system": "http://hl7.org/fhir/us/pacio-pfe/CodeSystem/pfe-functioning-cs",
                "code": "functioning",
                "display": "Functioning"
              }
            ]
          }
        ],
        "code": {
          "coding": [
            {
              "system": "http://loinc.org",
              "code": "89406-3",
              "display": "Lower body dressing - functional goal during assessment period [CMS Assessment]"
            }
          ]
        },
        "subject": {
          "reference": "Patient/patientBSJ1"
        },
        "effectiveDateTime": "2024-05-16T14:30:00-04:00",
        "performer": [
          {
            "reference": "PractitionerRole/Role-OT-JenCadbury"
          }
        ],
        "valueCodeableConcept": {
          "coding": [
            {
              "system": "http://loinc.org",
              "code": "LA27998-6",
              "display": "Dependent - Helper does all of the effort. Resident does none of the effort to complete the activity. Or, the assistance of 2 or more helpers is required for the resident to complete the activity."
            }
          ]
        }
      }
    },
    {
      "fullUrl": "https://gw.interop.community/MiHIN/open/Observation/BSJ-MDS-Mobility-PT1",
      "resource": {
        "resourceType": "Observation",
        "id": "BSJ-MDS-Mobility-PT1",
        "meta": {
          "profile": [
            "http://hl7.org/fhir/us/pacio-pfe/StructureDefinition/pfe-collection"
          ]
        },
        "text": {
          "status": "extensions",
          "div": "<div xmlns=\"http://www.w3.org/1999/xhtml\"><a name=\"Observation_BSJ-MDS-Mobility-PT1\"> </a><p><b>Generated Narrative: Observation</b><a name=\"BSJ-MDS-Mobility-PT1\"> </a><a name=\"hcBSJ-MDS-Mobility-PT1\"> </a></p><div style=\"display: inline-block; background-color: #d9e0e7; padding: 6px; margin: 4px; border: 1px solid #8da1b4; border-radius: 5px; line-height: 60%\"><p style=\"margin-bottom: 0px\">ResourceObservation &quot;BSJ-MDS-Mobility-PT1&quot; </p><p style=\"margin-bottom: 0px\">Profile: <a href=\"http://hl7.org/fhir/us/pacio-pfe/STU1/StructureDefinition-pfe-collection.html\">Personal Functioning and Engagement Collection</a></p></div><p><b>Event Location</b>: See on this page: Location/org-Loc-SNF-Happy-Nursing-Facility</p><p><b>status</b>: final</p><p><b>category</b>: Mobility <span style=\"background: LightGoldenRodYellow; margin: 4px; border: 1px solid khaki\"> (<a href=\"http://hl7.org/fhir/us/pacio-pfe/STU1/CodeSystem-pfe-category-cs.html\">Personal Functioning and Engagement Category</a>#blockl2-d41)</span>, Survey <span style=\"background: LightGoldenRodYellow; margin: 4px; border: 1px solid khaki\"> (<a href=\"http://terminology.hl7.org/5.4.0/CodeSystem-observation-category.html\">Observation Category Codes</a>#survey)</span>, Functioning <span style=\"background: LightGoldenRodYellow; margin: 4px; border: 1px solid khaki\"> (<a href=\"http://hl7.org/fhir/us/pacio-pfe/STU1/CodeSystem-pfe-functioning-cs.html\">Personal Functioning and Engagement Functioning Category Code System</a>#functioning)</span></p><p><b>code</b>: MDS v3.0 - RAI v1.18.11 - Nursing home discharge (ND) item set during assessment period [CMS Assessment] <span style=\"background: LightGoldenRodYellow; margin: 4px; border: 1px solid khaki\"> (<a href=\"https://loinc.org/\">LOINC</a>#101107-1)</span></p><p><b>subject</b>: See on this page: Patient/patientBSJ1</p><p><b>effective</b>: 2024-05-16 14:30:00-0400</p><p><b>performer</b>: See on this page: PractitionerRole/Role-OT-JenCadbury</p><p><b>hasMember</b>: </p><ul><li>See on this page: Observation/BSJ-MDS-ShortWalk1</li><li>See on this page: Observation/BSJ-MDS-SitStand1</li><li>See on this page: Observation/BSJ-MDS-SitUp1</li></ul></div>"
        },
        "extension": [
          {
            "url": "http://hl7.org/fhir/StructureDefinition/event-location",
            "valueReference": {
              "reference": "Location/org-Loc-SNF-Happy-Nursing-Facility"
            }
          }
        ],
        "status": "final",
        "category": [
          {
            "coding": [
              {
                "system": "http://hl7.org/fhir/us/pacio-pfe/CodeSystem/pfe-category-cs",
                "code": "blockl2-d41",
                "display": "Mobility"
              }
            ]
          },
          {
            "coding": [
              {
                "system": "http://terminology.hl7.org/CodeSystem/observation-category",
                "code": "survey"
              }
            ]
          },
          {
            "coding": [
              {
                "system": "http://hl7.org/fhir/us/pacio-pfe/CodeSystem/pfe-functioning-cs",
                "code": "functioning",
                "display": "Functioning"
              }
            ]
          }
        ],
        "code": {
          "coding": [
            {
              "system": "http://loinc.org",
              "code": "101107-1",
              "display": "MDS v3.0 - RAI v1.18.11 - Nursing home discharge (ND) item set during assessment period [CMS Assessment]"
            }
          ]
        },
        "subject": {
          "reference": "Patient/patientBSJ1"
        },
        "effectiveDateTime": "2024-05-16T14:30:00-04:00",
        "performer": [
          {
            "reference": "PractitionerRole/Role-OT-JenCadbury"
          }
        ],
        "hasMember": [
          {
            "reference": "Observation/BSJ-MDS-ShortWalk1"
          },
          {
            "reference": "Observation/BSJ-MDS-SitStand1"
          },
          {
            "reference": "Observation/BSJ-MDS-SitUp1"
          }
        ]
      }
    },
    {
      "fullUrl": "https://gw.interop.community/MiHIN/open/Observation/BSJ-MDS-ShortWalk1",
      "resource": {
        "resourceType": "Observation",
        "id": "BSJ-MDS-ShortWalk1",
        "meta": {
          "profile": [
            "http://hl7.org/fhir/us/pacio-pfe/StructureDefinition/pfe-observation-single"
          ]
        },
        "text": {
          "status": "extensions",
          "div": "<div xmlns=\"http://www.w3.org/1999/xhtml\"><a name=\"Observation_BSJ-MDS-ShortWalk1\"> </a><p><b>Generated Narrative: Observation</b><a name=\"BSJ-MDS-ShortWalk1\"> </a><a name=\"hcBSJ-MDS-ShortWalk1\"> </a></p><div style=\"display: inline-block; background-color: #d9e0e7; padding: 6px; margin: 4px; border: 1px solid #8da1b4; border-radius: 5px; line-height: 60%\"><p style=\"margin-bottom: 0px\">ResourceObservation &quot;BSJ-MDS-ShortWalk1&quot; </p><p style=\"margin-bottom: 0px\">Profile: <a href=\"http://hl7.org/fhir/us/pacio-pfe/STU1/StructureDefinition-pfe-observation-single.html\">Personal Functioning and Engagement Single Observation</a></p></div><p><b>Event Location</b>: See on this page: Location/org-Loc-SNF-Happy-Nursing-Facility</p><p><b>status</b>: final</p><p><b>category</b>: Moving Around Within the Home <span style=\"background: LightGoldenRodYellow; margin: 4px; border: 1px solid khaki\"> (<a href=\"http://hl7.org/fhir/us/pacio-pfe/STU1/CodeSystem-pfe-category-cs.html\">Personal Functioning and Engagement Category</a>#d4600)</span>, Survey <span style=\"background: LightGoldenRodYellow; margin: 4px; border: 1px solid khaki\"> (<a href=\"http://terminology.hl7.org/5.4.0/CodeSystem-observation-category.html\">Observation Category Codes</a>#survey)</span>, Functioning <span style=\"background: LightGoldenRodYellow; margin: 4px; border: 1px solid khaki\"> (<a href=\"http://hl7.org/fhir/us/pacio-pfe/STU1/CodeSystem-pfe-functioning-cs.html\">Personal Functioning and Engagement Functioning Category Code System</a>#functioning)</span></p><p><b>code</b>: Walk 50 feet with two turns - functional goal during assessment period [CMS Assessment] <span style=\"background: LightGoldenRodYellow; margin: 4px; border: 1px solid khaki\"> (<a href=\"https://loinc.org/\">LOINC</a>#89381-8)</span></p><p><b>subject</b>: See on this page: Patient/patientBSJ1</p><p><b>effective</b>: 2024-05-16 14:30:00-0400</p><p><b>performer</b>: See on this page: PractitionerRole/Role-OT-JenCadbury</p><p><b>value</b>: Partial/moderate assistance - helper does less than half the effort. Helper lifts, holds or supports trunk or limbs, but provides less than half the effort. <span style=\"background: LightGoldenRodYellow; margin: 4px; border: 1px solid khaki\"> (<a href=\"https://loinc.org/\">LOINC</a>#LA10055-4)</span></p></div>"
        },
        "extension": [
          {
            "url": "http://hl7.org/fhir/StructureDefinition/event-location",
            "valueReference": {
              "reference": "Location/org-Loc-SNF-Happy-Nursing-Facility"
            }
          }
        ],
        "status": "final",
        "category": [
          {
            "coding": [
              {
                "system": "http://hl7.org/fhir/us/pacio-pfe/CodeSystem/pfe-category-cs",
                "code": "d4600",
                "display": "Moving Around Within the Home"
              }
            ]
          },
          {
            "coding": [
              {
                "system": "http://terminology.hl7.org/CodeSystem/observation-category",
                "code": "survey"
              }
            ]
          },
          {
            "coding": [
              {
                "system": "http://hl7.org/fhir/us/pacio-pfe/CodeSystem/pfe-functioning-cs",
                "code": "functioning",
                "display": "Functioning"
              }
            ]
          }
        ],
        "code": {
          "coding": [
            {
              "system": "http://loinc.org",
              "code": "89381-8",
              "display": "Walk 50 feet with two turns - functional goal during assessment period [CMS Assessment]"
            }
          ]
        },
        "subject": {
          "reference": "Patient/patientBSJ1"
        },
        "effectiveDateTime": "2024-05-16T14:30:00-04:00",
        "performer": [
          {
            "reference": "PractitionerRole/Role-OT-JenCadbury"
          }
        ],
        "valueCodeableConcept": {
          "coding": [
            {
              "system": "http://loinc.org",
              "code": "LA10055-4",
              "display": "Partial/moderate assistance - helper does less than half the effort. Helper lifts, holds or supports trunk or limbs, but provides less than half the effort."
            }
          ]
        }
      }
    },
    {
      "fullUrl": "https://gw.interop.community/MiHIN/open/Observation/BSJ-MDS-SitStand1",
      "resource": {
        "resourceType": "Observation",
        "id": "BSJ-MDS-SitStand1",
        "meta": {
          "profile": [
            "http://hl7.org/fhir/us/pacio-pfe/StructureDefinition/pfe-observation-single"
          ]
        },
        "text": {
          "status": "extensions",
          "div": "<div xmlns=\"http://www.w3.org/1999/xhtml\"><a name=\"Observation_BSJ-MDS-SitStand1\"> </a><p><b>Generated Narrative: Observation</b><a name=\"BSJ-MDS-SitStand1\"> </a><a name=\"hcBSJ-MDS-SitStand1\"> </a></p><div style=\"display: inline-block; background-color: #d9e0e7; padding: 6px; margin: 4px; border: 1px solid #8da1b4; border-radius: 5px; line-height: 60%\"><p style=\"margin-bottom: 0px\">ResourceObservation &quot;BSJ-MDS-SitStand1&quot; </p><p style=\"margin-bottom: 0px\">Profile: <a href=\"http://hl7.org/fhir/us/pacio-pfe/STU1/StructureDefinition-pfe-observation-single.html\">Personal Functioning and Engagement Single Observation</a></p></div><p><b>Event Location</b>: See on this page: Location/org-Loc-SNF-Happy-Nursing-Facility</p><p><b>status</b>: final</p><p><b>category</b>: Standing <span style=\"background: LightGoldenRodYellow; margin: 4px; border: 1px solid khaki\"> (<a href=\"http://hl7.org/fhir/us/pacio-pfe/STU1/CodeSystem-pfe-category-cs.html\">Personal Functioning and Engagement Category</a>#d4014)</span>, Survey <span style=\"background: LightGoldenRodYellow; margin: 4px; border: 1px solid khaki\"> (<a href=\"http://terminology.hl7.org/5.4.0/CodeSystem-observation-category.html\">Observation Category Codes</a>#survey)</span>, Functioning <span style=\"background: LightGoldenRodYellow; margin: 4px; border: 1px solid khaki\"> (<a href=\"http://hl7.org/fhir/us/pacio-pfe/STU1/CodeSystem-pfe-functioning-cs.html\">Personal Functioning and Engagement Functioning Category Code System</a>#functioning)</span></p><p><b>code</b>: Sit to stand - functional goal during assessment period [CMS Assessment] <span style=\"background: LightGoldenRodYellow; margin: 4px; border: 1px solid khaki\"> (<a href=\"https://loinc.org/\">LOINC</a>#89392-5)</span></p><p><b>subject</b>: See on this page: Patient/patientBSJ1</p><p><b>effective</b>: 2024-05-16 14:30:00-0400</p><p><b>performer</b>: See on this page: PractitionerRole/Role-OT-JenCadbury</p><p><b>value</b>: Substantial/maximal assistance - Helper does more than half the effort. Helper lifts or holds trunk or limbs and provides more than half the effort. <span style=\"background: LightGoldenRodYellow; margin: 4px; border: 1px solid khaki\"> (<a href=\"https://loinc.org/\">LOINC</a>#LA11759-0)</span></p></div>"
        },
        "extension": [
          {
            "url": "http://hl7.org/fhir/StructureDefinition/event-location",
            "valueReference": {
              "reference": "Location/org-Loc-SNF-Happy-Nursing-Facility"
            }
          }
        ],
        "status": "final",
        "category": [
          {
            "coding": [
              {
                "system": "http://hl7.org/fhir/us/pacio-pfe/CodeSystem/pfe-category-cs",
                "code": "d4014",
                "display": "Standing"
              }
            ]
          },
          {
            "coding": [
              {
                "system": "http://terminology.hl7.org/CodeSystem/observation-category",
                "code": "survey"
              }
            ]
          },
          {
            "coding": [
              {
                "system": "http://hl7.org/fhir/us/pacio-pfe/CodeSystem/pfe-functioning-cs",
                "code": "functioning",
                "display": "Functioning"
              }
            ]
          }
        ],
        "code": {
          "coding": [
            {
              "system": "http://loinc.org",
              "code": "89392-5",
              "display": "Sit to stand - functional goal during assessment period [CMS Assessment]"
            }
          ]
        },
        "subject": {
          "reference": "Patient/patientBSJ1"
        },
        "effectiveDateTime": "2024-05-16T14:30:00-04:00",
        "performer": [
          {
            "reference": "PractitionerRole/Role-OT-JenCadbury"
          }
        ],
        "valueCodeableConcept": {
          "coding": [
            {
              "system": "http://loinc.org",
              "code": "LA11759-0",
              "display": "Substantial/maximal assistance - Helper does more than half the effort. Helper lifts or holds trunk or limbs and provides more than half the effort."
            }
          ]
        }
      }
    },
    {
      "fullUrl": "https://gw.interop.community/MiHIN/open/Observation/BSJ-MDS-SitUp1",
      "resource": {
        "resourceType": "Observation",
        "id": "BSJ-MDS-SitUp1",
        "meta": {
          "profile": [
            "http://hl7.org/fhir/us/pacio-pfe/StructureDefinition/pfe-observation-single"
          ]
        },
        "text": {
          "status": "extensions",
          "div": "<div xmlns=\"http://www.w3.org/1999/xhtml\"><a name=\"Observation_BSJ-MDS-SitUp1\"> </a><p><b>Generated Narrative: Observation</b><a name=\"BSJ-MDS-SitUp1\"> </a><a name=\"hcBSJ-MDS-SitUp1\"> </a></p><div style=\"display: inline-block; background-color: #d9e0e7; padding: 6px; margin: 4px; border: 1px solid #8da1b4; border-radius: 5px; line-height: 60%\"><p style=\"margin-bottom: 0px\">ResourceObservation &quot;BSJ-MDS-SitUp1&quot; </p><p style=\"margin-bottom: 0px\">Profile: <a href=\"http://hl7.org/fhir/us/pacio-pfe/STU1/StructureDefinition-pfe-observation-single.html\">Personal Functioning and Engagement Single Observation</a></p></div><p><b>Event Location</b>: See on this page: Location/org-Loc-SNF-Happy-Nursing-Facility</p><p><b>status</b>: final</p><p><b>category</b>: Lying Down <span style=\"background: LightGoldenRodYellow; margin: 4px; border: 1px solid khaki\"> (<a href=\"http://hl7.org/fhir/us/pacio-pfe/STU1/CodeSystem-pfe-category-cs.html\">Personal Functioning and Engagement Category</a>#d4100)</span>, Survey <span style=\"background: LightGoldenRodYellow; margin: 4px; border: 1px solid khaki\"> (<a href=\"http://terminology.hl7.org/5.4.0/CodeSystem-observation-category.html\">Observation Category Codes</a>#survey)</span>, Functioning <span style=\"background: LightGoldenRodYellow; margin: 4px; border: 1px solid khaki\"> (<a href=\"http://hl7.org/fhir/us/pacio-pfe/STU1/CodeSystem-pfe-functioning-cs.html\">Personal Functioning and Engagement Functioning Category Code System</a>#functioning)</span></p><p><b>code</b>: Lying to sitting on side of bed - functional goal during assessment period [CMS Assessment] <span style=\"background: LightGoldenRodYellow; margin: 4px; border: 1px solid khaki\"> (<a href=\"https://loinc.org/\">LOINC</a>#85927-2)</span></p><p><b>subject</b>: See on this page: Patient/patientBSJ1</p><p><b>effective</b>: 2024-05-16 14:30:00-0400</p><p><b>performer</b>: See on this page: PractitionerRole/Role-OT-JenCadbury</p><p><b>value</b>: Supervision or touching assistance - Helper provides verbal cues and/or touching/steadying and/or contact guard assistance as person completes activity. Assistance may be provided throughout the activity or intermittently. <span style=\"background: LightGoldenRodYellow; margin: 4px; border: 1px solid khaki\"> (<a href=\"https://loinc.org/\">LOINC</a>#LA30911-4)</span></p></div>"
        },
        "extension": [
          {
            "url": "http://hl7.org/fhir/StructureDefinition/event-location",
            "valueReference": {
              "reference": "Location/org-Loc-SNF-Happy-Nursing-Facility"
            }
          }
        ],
        "status": "final",
        "category": [
          {
            "coding": [
              {
                "system": "http://hl7.org/fhir/us/pacio-pfe/CodeSystem/pfe-category-cs",
                "code": "d4100",
                "display": "Lying Down"
              }
            ]
          },
          {
            "coding": [
              {
                "system": "http://terminology.hl7.org/CodeSystem/observation-category",
                "code": "survey"
              }
            ]
          },
          {
            "coding": [
              {
                "system": "http://hl7.org/fhir/us/pacio-pfe/CodeSystem/pfe-functioning-cs",
                "code": "functioning",
                "display": "Functioning"
              }
            ]
          }
        ],
        "code": {
          "coding": [
            {
              "system": "http://loinc.org",
              "code": "85927-2",
              "display": "Lying to sitting on side of bed - functional goal during assessment period [CMS Assessment]"
            }
          ]
        },
        "subject": {
          "reference": "Patient/patientBSJ1"
        },
        "effectiveDateTime": "2024-05-16T14:30:00-04:00",
        "performer": [
          {
            "reference": "PractitionerRole/Role-OT-JenCadbury"
          }
        ],
        "valueCodeableConcept": {
          "coding": [
            {
              "system": "http://loinc.org",
              "code": "LA30911-4",
              "display": "Supervision or touching assistance - Helper provides verbal cues and/or touching/steadying and/or contact guard assistance as person completes activity. Assistance may be provided throughout the activity or intermittently."
            }
          ]
        }
      }
    },
    {
      "fullUrl": "https://gw.interop.community/MiHIN/open/CarePlan/BSJ-SNFDischargeCarePlan",
      "resource": {
        "resourceType": "CarePlan",
        "id": "BSJ-SNFDischargeCarePlan",
        "meta": {
          "profile": [
            "http://hl7.org/fhir/us/core/StructureDefinition/us-core-careplan"
          ]
        },
        "text": {
          "status": "generated",
          "div": "<div xmlns=\"http://www.w3.org/1999/xhtml\"><a name=\"CarePlan_BSJ-SNFDischargeCarePlan\"> </a><p><b>Generated Narrative: CarePlan</b><a name=\"BSJ-SNFDischargeCarePlan\"> </a><a name=\"hcBSJ-SNFDischargeCarePlan\"> </a></p><div style=\"display: inline-block; background-color: #d9e0e7; padding: 6px; margin: 4px; border: 1px solid #8da1b4; border-radius: 5px; line-height: 60%\"><p style=\"margin-bottom: 0px\">ResourceCarePlan &quot;BSJ-SNFDischargeCarePlan&quot; </p><p style=\"margin-bottom: 0px\">Profile: <a href=\"http://hl7.org/fhir/us/core/STU6.1/StructureDefinition-us-core-careplan.html\">US Core CarePlan Profile</a></p></div><p><b>status</b>: active</p><p><b>intent</b>: plan</p><p><b>category</b>: Rehabilitation care plan (record artifact) <span style=\"background: LightGoldenRodYellow; margin: 4px; border: 1px solid khaki\"> (<a href=\"https://browser.ihtsdotools.org/\">SNOWMED CT</a>#736055001)</span>, Assessment and Plan of Treatment <span style=\"background: LightGoldenRodYellow; margin: 4px; border: 1px solid khaki\"> (<a href=\"http://hl7.org/fhir/us/core/STU6.1/CodeSystem-careplan-category.html\">US Core CarePlan Category Extension Codes</a>#assess-plan)</span></p><p><b>subject</b>: See on this page: Patient/patientBSJ1</p><blockquote><p><b>activity</b></p><p><b>reference</b>: See on this page: ServiceRequest/BSJ-PCPFollowUp</p></blockquote><blockquote><p><b>activity</b></p><p><b>reference</b>: See on this page: ServiceRequest/BSJ-SNFDischargeCallOrder</p></blockquote><blockquote><p><b>activity</b></p><p><b>reference</b>: See on this page: ServiceRequest/BSJ-SNFDischargeCallOTRefer</p></blockquote><blockquote><p><b>activity</b></p><p><b>reference</b>: See on this page: ServiceRequest/BSJ-SNFDischargeCallSLPRefer</p></blockquote><blockquote><p><b>activity</b></p><p><b>reference</b>: See on this page: ServiceRequest/BSJ-SNFDischargeDietProtein</p></blockquote><blockquote><p><b>activity</b></p><p><b>reference</b>: See on this page: ServiceRequest/BSJ-SNFDischargeDietSalt</p></blockquote><blockquote><p><b>activity</b></p><p><b>reference</b>: See on this page: ServiceRequest/BSJ-SNFDischargeLabOrderBMP</p></blockquote><blockquote><p><b>activity</b></p><p><b>reference</b>: See on this page: ServiceRequest/BSJ-SNFDischargeLabOrderCBC</p></blockquote><blockquote><p><b>activity</b></p><p><b>reference</b>: See on this page: ServiceRequest/BSJ-SNFDischargePTRefer</p></blockquote></div>"
        },
        "status": "active",
        "intent": "plan",
        "category": [
          {
            "coding": [
              {
                "system": "http://snomed.info/sct",
                "code": "736055001"
              }
            ]
          },
          {
            "coding": [
              {
                "system": "http://hl7.org/fhir/us/core/CodeSystem/careplan-category",
                "code": "assess-plan"
              }
            ]
          }
        ],
        "subject": {
          "reference": "Patient/patientBSJ1"
        },
        "activity": [
          {
            "reference": {
              "reference": "ServiceRequest/BSJ-PCPFollowUp"
            }
          },
          {
            "reference": {
              "reference": "ServiceRequest/BSJ-SNFDischargeCallOrder"
            }
          },
          {
            "reference": {
              "reference": "ServiceRequest/BSJ-SNFDischargeCallOTRefer"
            }
          },
          {
            "reference": {
              "reference": "ServiceRequest/BSJ-SNFDischargeCallSLPRefer"
            }
          },
          {
            "reference": {
              "reference": "ServiceRequest/BSJ-SNFDischargeDietProtein"
            }
          },
          {
            "reference": {
              "reference": "ServiceRequest/BSJ-SNFDischargeDietSalt"
            }
          },
          {
            "reference": {
              "reference": "ServiceRequest/BSJ-SNFDischargeLabOrderBMP"
            }
          },
          {
            "reference": {
              "reference": "ServiceRequest/BSJ-SNFDischargeLabOrderCBC"
            }
          },
          {
            "reference": {
              "reference": "ServiceRequest/BSJ-SNFDischargePTRefer"
            }
          }
        ]
      }
    },
    {
      "fullUrl": "https://gw.interop.community/MiHIN/open/ServiceRequest/BSJ-PCPFollowUp",
      "resource": {
        "resourceType": "ServiceRequest",
        "id": "BSJ-PCPFollowUp",
        "meta": {
          "profile": [
            "http://hl7.org/fhir/us/core/StructureDefinition/us-core-servicerequest"
          ]
        },
        "text": {
          "status": "generated",
          "div": "<div xmlns=\"http://www.w3.org/1999/xhtml\"><a name=\"ServiceRequest_BSJ-PCPFollowUp\"> </a><p><b>Generated Narrative: ServiceRequest</b><a name=\"BSJ-PCPFollowUp\"> </a><a name=\"hcBSJ-PCPFollowUp\"> </a></p><div style=\"display: inline-block; background-color: #d9e0e7; padding: 6px; margin: 4px; border: 1px solid #8da1b4; border-radius: 5px; line-height: 60%\"><p style=\"margin-bottom: 0px\">ResourceServiceRequest &quot;BSJ-PCPFollowUp&quot; </p><p style=\"margin-bottom: 0px\">Profile: <a href=\"http://hl7.org/fhir/us/core/STU6.1/StructureDefinition-us-core-servicerequest.html\">US Core ServiceRequest Profile</a></p></div><p><b>status</b>: active</p><p><b>intent</b>: order</p><p><b>category</b>: Evaluation procedure (procedure) <span style=\"background: LightGoldenRodYellow; margin: 4px; border: 1px solid khaki\"> (<a href=\"https://browser.ihtsdotools.org/\">SNOWMED CT</a>#386053000)</span></p><p><b>priority</b>: routine</p><p><b>code</b>: Follow-up visit (procedure) <span style=\"background: LightGoldenRodYellow; margin: 4px; border: 1px solid khaki\"> (<a href=\"https://browser.ihtsdotools.org/\">SNOWMED CT</a>#185389009)</span></p><p><b>subject</b>: See on this page: Patient/patientBSJ1</p><p><b>occurrence</b>: 2024-05-28</p><p><b>authoredOn</b>: 2024-05-18</p><p><b>requester</b>: See on this page: PractitionerRole/Role-SNFDoc-GeraldPark</p></div>"
        },
        "status": "active",
        "intent": "order",
        "category": [
          {
            "coding": [
              {
                "system": "http://snomed.info/sct",
                "code": "386053000",
                "display": "Evaluation procedure (procedure)"
              }
            ]
          }
        ],
        "priority": "routine",
        "code": {
          "coding": [
            {
              "system": "http://snomed.info/sct",
              "code": "185389009",
              "display": "Follow-up visit (procedure)"
            }
          ]
        },
        "subject": {
          "reference": "Patient/patientBSJ1"
        },
        "occurrenceDateTime": "2024-05-28",
        "authoredOn": "2024-05-18",
        "requester": {
          "reference": "PractitionerRole/Role-SNFDoc-GeraldPark"
        }
      }
    },
    {
      "fullUrl": "https://gw.interop.community/MiHIN/open/ServiceRequest/BSJ-SNFDischargeCallOrder",
      "resource": {
        "resourceType": "ServiceRequest",
        "id": "BSJ-SNFDischargeCallOrder",
        "meta": {
          "profile": [
            "http://hl7.org/fhir/us/core/StructureDefinition/us-core-servicerequest"
          ]
        },
        "text": {
          "status": "generated",
          "div": "<div xmlns=\"http://www.w3.org/1999/xhtml\"><a name=\"ServiceRequest_BSJ-SNFDischargeCallOrder\"> </a><p><b>Generated Narrative: ServiceRequest</b><a name=\"BSJ-SNFDischargeCallOrder\"> </a><a name=\"hcBSJ-SNFDischargeCallOrder\"> </a></p><div style=\"display: inline-block; background-color: #d9e0e7; padding: 6px; margin: 4px; border: 1px solid #8da1b4; border-radius: 5px; line-height: 60%\"><p style=\"margin-bottom: 0px\">ResourceServiceRequest &quot;BSJ-SNFDischargeCallOrder&quot; </p><p style=\"margin-bottom: 0px\">Profile: <a href=\"http://hl7.org/fhir/us/core/STU6.1/StructureDefinition-us-core-servicerequest.html\">US Core ServiceRequest Profile</a></p></div><p><b>status</b>: active</p><p><b>intent</b>: order</p><p><b>category</b>: Evaluation procedure (procedure) <span style=\"background: LightGoldenRodYellow; margin: 4px; border: 1px solid khaki\"> (<a href=\"https://browser.ihtsdotools.org/\">SNOWMED CT</a>#386053000)</span></p><p><b>priority</b>: routine</p><p><b>code</b>: Informing doctor (procedure) <span style=\"background: LightGoldenRodYellow; margin: 4px; border: 1px solid khaki\"> (<a href=\"https://browser.ihtsdotools.org/\">SNOWMED CT</a>#304562007)</span></p><p><b>subject</b>: See on this page: Patient/patientBSJ1</p><p><b>occurrence</b>: 2024-05-18 --&gt; (ongoing)</p><p><b>authoredOn</b>: 2024-05-18</p><p><b>requester</b>: See on this page: PractitionerRole/Role-SNFDoc-GeraldPark</p></div>"
        },
        "status": "active",
        "intent": "order",
        "category": [
          {
            "coding": [
              {
                "system": "http://snomed.info/sct",
                "code": "386053000",
                "display": "Evaluation procedure (procedure)"
              }
            ]
          }
        ],
        "priority": "routine",
        "code": {
          "coding": [
            {
              "system": "http://snomed.info/sct",
              "code": "304562007",
              "display": "Informing doctor (procedure)"
            }
          ]
        },
        "subject": {
          "reference": "Patient/patientBSJ1"
        },
        "occurrencePeriod": {
          "start": "2024-05-18"
        },
        "authoredOn": "2024-05-18",
        "requester": {
          "reference": "PractitionerRole/Role-SNFDoc-GeraldPark"
        }
      }
    },
    {
      "fullUrl": "https://gw.interop.community/MiHIN/open/ServiceRequest/BSJ-SNFDischargeCallOTRefer",
      "resource": {
        "resourceType": "ServiceRequest",
        "id": "BSJ-SNFDischargeCallOTRefer",
        "meta": {
          "profile": [
            "http://hl7.org/fhir/us/core/StructureDefinition/us-core-servicerequest"
          ]
        },
        "text": {
          "status": "generated",
          "div": "<div xmlns=\"http://www.w3.org/1999/xhtml\"><a name=\"ServiceRequest_BSJ-SNFDischargeCallOTRefer\"> </a><p><b>Generated Narrative: ServiceRequest</b><a name=\"BSJ-SNFDischargeCallOTRefer\"> </a><a name=\"hcBSJ-SNFDischargeCallOTRefer\"> </a></p><div style=\"display: inline-block; background-color: #d9e0e7; padding: 6px; margin: 4px; border: 1px solid #8da1b4; border-radius: 5px; line-height: 60%\"><p style=\"margin-bottom: 0px\">ResourceServiceRequest &quot;BSJ-SNFDischargeCallOTRefer&quot; </p><p style=\"margin-bottom: 0px\">Profile: <a href=\"http://hl7.org/fhir/us/core/STU6.1/StructureDefinition-us-core-servicerequest.html\">US Core ServiceRequest Profile</a></p></div><p><b>status</b>: active</p><p><b>intent</b>: order</p><p><b>category</b>: Evaluation procedure (procedure) <span style=\"background: LightGoldenRodYellow; margin: 4px; border: 1px solid khaki\"> (<a href=\"https://browser.ihtsdotools.org/\">SNOWMED CT</a>#386053000)</span></p><p><b>priority</b>: routine</p><p><b>code</b>: Occupational therapy assessment (procedure) <span style=\"background: LightGoldenRodYellow; margin: 4px; border: 1px solid khaki\"> (<a href=\"https://browser.ihtsdotools.org/\">SNOWMED CT</a>#410155007)</span></p><p><b>subject</b>: See on this page: Patient/patientBSJ1</p><p><b>occurrence</b>: 2024-05-18 --&gt; (ongoing)</p><p><b>authoredOn</b>: 2024-05-18</p><p><b>requester</b>: See on this page: PractitionerRole/Role-SNFDoc-GeraldPark</p><p><b>reasonReference</b>: See on this page: Condition/BSJ-HemiparesisDiagnosis</p></div>"
        },
        "status": "active",
        "intent": "order",
        "category": [
          {
            "coding": [
              {
                "system": "http://snomed.info/sct",
                "code": "386053000",
                "display": "Evaluation procedure (procedure)"
              }
            ]
          }
        ],
        "priority": "routine",
        "code": {
          "coding": [
            {
              "system": "http://snomed.info/sct",
              "code": "410155007",
              "display": "Occupational therapy assessment (procedure)"
            }
          ]
        },
        "subject": {
          "reference": "Patient/patientBSJ1"
        },
        "occurrencePeriod": {
          "start": "2024-05-18"
        },
        "authoredOn": "2024-05-18",
        "requester": {
          "reference": "PractitionerRole/Role-SNFDoc-GeraldPark"
        },
        "reasonReference": [
          {
            "reference": "Condition/BSJ-HemiparesisDiagnosis"
          }
        ]
      }
    },
    {
      "fullUrl": "https://gw.interop.community/MiHIN/open/ServiceRequest/BSJ-SNFDischargeCallSLPRefer",
      "resource": {
        "resourceType": "ServiceRequest",
        "id": "BSJ-SNFDischargeCallSLPRefer",
        "meta": {
          "profile": [
            "http://hl7.org/fhir/us/core/StructureDefinition/us-core-servicerequest"
          ]
        },
        "text": {
          "status": "generated",
          "div": "<div xmlns=\"http://www.w3.org/1999/xhtml\"><a name=\"ServiceRequest_BSJ-SNFDischargeCallSLPRefer\"> </a><p><b>Generated Narrative: ServiceRequest</b><a name=\"BSJ-SNFDischargeCallSLPRefer\"> </a><a name=\"hcBSJ-SNFDischargeCallSLPRefer\"> </a></p><div style=\"display: inline-block; background-color: #d9e0e7; padding: 6px; margin: 4px; border: 1px solid #8da1b4; border-radius: 5px; line-height: 60%\"><p style=\"margin-bottom: 0px\">ResourceServiceRequest &quot;BSJ-SNFDischargeCallSLPRefer&quot; </p><p style=\"margin-bottom: 0px\">Profile: <a href=\"http://hl7.org/fhir/us/core/STU6.1/StructureDefinition-us-core-servicerequest.html\">US Core ServiceRequest Profile</a></p></div><p><b>status</b>: active</p><p><b>intent</b>: order</p><p><b>category</b>: Evaluation procedure (procedure) <span style=\"background: LightGoldenRodYellow; margin: 4px; border: 1px solid khaki\"> (<a href=\"https://browser.ihtsdotools.org/\">SNOWMED CT</a>#386053000)</span></p><p><b>priority</b>: routine</p><p><b>code</b>: Speech therapy assessment (procedure) <span style=\"background: LightGoldenRodYellow; margin: 4px; border: 1px solid khaki\"> (<a href=\"https://browser.ihtsdotools.org/\">SNOWMED CT</a>#410161005)</span></p><p><b>subject</b>: See on this page: Patient/patientBSJ1</p><p><b>occurrence</b>: 2024-05-18 --&gt; (ongoing)</p><p><b>authoredOn</b>: 2024-05-18</p><p><b>requester</b>: See on this page: PractitionerRole/Role-SNFDoc-GeraldPark</p></div>"
        },
        "status": "active",
        "intent": "order",
        "category": [
          {
            "coding": [
              {
                "system": "http://snomed.info/sct",
                "code": "386053000",
                "display": "Evaluation procedure (procedure)"
              }
            ]
          }
        ],
        "priority": "routine",
        "code": {
          "coding": [
            {
              "system": "http://snomed.info/sct",
              "code": "410161005",
              "display": "Speech therapy assessment (procedure)"
            }
          ]
        },
        "subject": {
          "reference": "Patient/patientBSJ1"
        },
        "occurrencePeriod": {
          "start": "2024-05-18"
        },
        "authoredOn": "2024-05-18",
        "requester": {
          "reference": "PractitionerRole/Role-SNFDoc-GeraldPark"
        }
      }
    },
    {
      "fullUrl": "https://gw.interop.community/MiHIN/open/ServiceRequest/BSJ-SNFDischargeDietProtein",
      "resource": {
        "resourceType": "ServiceRequest",
        "id": "BSJ-SNFDischargeDietProtein",
        "meta": {
          "profile": [
            "http://hl7.org/fhir/us/core/StructureDefinition/us-core-servicerequest"
          ]
        },
        "text": {
          "status": "generated",
          "div": "<div xmlns=\"http://www.w3.org/1999/xhtml\"><a name=\"ServiceRequest_BSJ-SNFDischargeDietProtein\"> </a><p><b>Generated Narrative: ServiceRequest</b><a name=\"BSJ-SNFDischargeDietProtein\"> </a><a name=\"hcBSJ-SNFDischargeDietProtein\"> </a></p><div style=\"display: inline-block; background-color: #d9e0e7; padding: 6px; margin: 4px; border: 1px solid #8da1b4; border-radius: 5px; line-height: 60%\"><p style=\"margin-bottom: 0px\">ResourceServiceRequest &quot;BSJ-SNFDischargeDietProtein&quot; </p><p style=\"margin-bottom: 0px\">Profile: <a href=\"http://hl7.org/fhir/us/core/STU6.1/StructureDefinition-us-core-servicerequest.html\">US Core ServiceRequest Profile</a></p></div><p><b>status</b>: active</p><p><b>intent</b>: order</p><p><b>category</b>: Dietary regime (regime/therapy) <span style=\"background: LightGoldenRodYellow; margin: 4px; border: 1px solid khaki\"> (<a href=\"https://browser.ihtsdotools.org/\">SNOWMED CT</a>#182922004)</span></p><p><b>priority</b>: routine</p><p><b>code</b>: Decreased protein and/or protein derivative diet (regime/therapy) <span style=\"background: LightGoldenRodYellow; margin: 4px; border: 1px solid khaki\"> (<a href=\"https://browser.ihtsdotools.org/\">SNOWMED CT</a>#1055201009)</span></p><p><b>subject</b>: See on this page: Patient/patientBSJ1</p><p><b>occurrence</b>: 2024-05-18 --&gt; (ongoing)</p><p><b>authoredOn</b>: 2024-05-18</p><p><b>requester</b>: See on this page: PractitionerRole/Role-SNFDoc-GeraldPark</p><p><b>reasonReference</b>: See on this page: Condition/BSJ-KidneyDisease</p></div>"
        },
        "status": "active",
        "intent": "order",
        "category": [
          {
            "coding": [
              {
                "system": "http://snomed.info/sct",
                "code": "182922004",
                "display": "Dietary regime (regime/therapy)"
              }
            ]
          }
        ],
        "priority": "routine",
        "code": {
          "coding": [
            {
              "system": "http://snomed.info/sct",
              "code": "1055201009",
              "display": "Decreased protein and/or protein derivative diet (regime/therapy)"
            }
          ]
        },
        "subject": {
          "reference": "Patient/patientBSJ1"
        },
        "occurrencePeriod": {
          "start": "2024-05-18"
        },
        "authoredOn": "2024-05-18",
        "requester": {
          "reference": "PractitionerRole/Role-SNFDoc-GeraldPark"
        },
        "reasonReference": [
          {
            "reference": "Condition/BSJ-KidneyDisease"
          }
        ]
      }
    },
    {
      "fullUrl": "https://gw.interop.community/MiHIN/open/ServiceRequest/BSJ-SNFDischargeDietSalt",
      "resource": {
        "resourceType": "ServiceRequest",
        "id": "BSJ-SNFDischargeDietSalt",
        "meta": {
          "profile": [
            "http://hl7.org/fhir/us/core/StructureDefinition/us-core-servicerequest"
          ]
        },
        "text": {
          "status": "generated",
          "div": "<div xmlns=\"http://www.w3.org/1999/xhtml\"><a name=\"ServiceRequest_BSJ-SNFDischargeDietSalt\"> </a><p><b>Generated Narrative: ServiceRequest</b><a name=\"BSJ-SNFDischargeDietSalt\"> </a><a name=\"hcBSJ-SNFDischargeDietSalt\"> </a></p><div style=\"display: inline-block; background-color: #d9e0e7; padding: 6px; margin: 4px; border: 1px solid #8da1b4; border-radius: 5px; line-height: 60%\"><p style=\"margin-bottom: 0px\">ResourceServiceRequest &quot;BSJ-SNFDischargeDietSalt&quot; </p><p style=\"margin-bottom: 0px\">Profile: <a href=\"http://hl7.org/fhir/us/core/STU6.1/StructureDefinition-us-core-servicerequest.html\">US Core ServiceRequest Profile</a></p></div><p><b>status</b>: active</p><p><b>intent</b>: order</p><p><b>category</b>: Dietary regime (regime/therapy) <span style=\"background: LightGoldenRodYellow; margin: 4px; border: 1px solid khaki\"> (<a href=\"https://browser.ihtsdotools.org/\">SNOWMED CT</a>#182922004)</span></p><p><b>priority</b>: routine</p><p><b>code</b>: Decreased sodium diet (regime/therapy) <span style=\"background: LightGoldenRodYellow; margin: 4px; border: 1px solid khaki\"> (<a href=\"https://browser.ihtsdotools.org/\">SNOWMED CT</a>#437421000124105)</span></p><p><b>subject</b>: See on this page: Patient/patientBSJ1</p><p><b>occurrence</b>: 2024-05-18 --&gt; (ongoing)</p><p><b>authoredOn</b>: 2024-05-18</p><p><b>requester</b>: See on this page: PractitionerRole/Role-SNFDoc-GeraldPark</p><p><b>reasonReference</b>: </p><ul><li>See on this page: Condition/BSJ-HeartDiseaseDiagnosis</li><li>See on this page: Condition/BSJ-KidneyDisease</li></ul></div>"
        },
        "status": "active",
        "intent": "order",
        "category": [
          {
            "coding": [
              {
                "system": "http://snomed.info/sct",
                "code": "182922004",
                "display": "Dietary regime (regime/therapy)"
              }
            ]
          }
        ],
        "priority": "routine",
        "code": {
          "coding": [
            {
              "system": "http://snomed.info/sct",
              "code": "437421000124105",
              "display": "Decreased sodium diet (regime/therapy)"
            }
          ]
        },
        "subject": {
          "reference": "Patient/patientBSJ1"
        },
        "occurrencePeriod": {
          "start": "2024-05-18"
        },
        "authoredOn": "2024-05-18",
        "requester": {
          "reference": "PractitionerRole/Role-SNFDoc-GeraldPark"
        },
        "reasonReference": [
          {
            "reference": "Condition/BSJ-HeartDiseaseDiagnosis"
          },
          {
            "reference": "Condition/BSJ-KidneyDisease"
          }
        ]
      }
    },
    {
      "fullUrl": "https://gw.interop.community/MiHIN/open/ServiceRequest/BSJ-SNFDischargeLabOrderBMP",
      "resource": {
        "resourceType": "ServiceRequest",
        "id": "BSJ-SNFDischargeLabOrderBMP",
        "meta": {
          "profile": [
            "http://hl7.org/fhir/us/core/StructureDefinition/us-core-servicerequest"
          ]
        },
        "text": {
          "status": "generated",
          "div": "<div xmlns=\"http://www.w3.org/1999/xhtml\"><a name=\"ServiceRequest_BSJ-SNFDischargeLabOrderBMP\"> </a><p><b>Generated Narrative: ServiceRequest</b><a name=\"BSJ-SNFDischargeLabOrderBMP\"> </a><a name=\"hcBSJ-SNFDischargeLabOrderBMP\"> </a></p><div style=\"display: inline-block; background-color: #d9e0e7; padding: 6px; margin: 4px; border: 1px solid #8da1b4; border-radius: 5px; line-height: 60%\"><p style=\"margin-bottom: 0px\">ResourceServiceRequest &quot;BSJ-SNFDischargeLabOrderBMP&quot; </p><p style=\"margin-bottom: 0px\">Profile: <a href=\"http://hl7.org/fhir/us/core/STU6.1/StructureDefinition-us-core-servicerequest.html\">US Core ServiceRequest Profile</a></p></div><p><b>status</b>: active</p><p><b>intent</b>: order</p><p><b>category</b>: Laboratory procedure <span style=\"background: LightGoldenRodYellow; margin: 4px; border: 1px solid khaki\"> (<a href=\"https://browser.ihtsdotools.org/\">SNOWMED CT</a>#108252007)</span></p><p><b>priority</b>: routine</p><p><b>code</b>: Blood chemistry (procedure) <span style=\"background: LightGoldenRodYellow; margin: 4px; border: 1px solid khaki\"> (<a href=\"https://browser.ihtsdotools.org/\">SNOWMED CT</a>#166312007)</span></p><p><b>subject</b>: See on this page: Patient/patientBSJ1</p><p><b>occurrence</b>: 2024-05-28</p><p><b>authoredOn</b>: 2024-05-18</p><p><b>requester</b>: See on this page: PractitionerRole/Role-SNFDoc-GeraldPark</p><p><b>reasonReference</b>: </p><ul><li>See on this page: Condition/BSJ-AnemiaDiagnosis</li><li>See on this page: Condition/BSJ-Hyperlipidemia</li><li>See on this page: Condition/BSJ-KidneyDisease</li><li>See on this page: Condition/BSJ-DiabetesDiagnosis</li></ul></div>"
        },
        "status": "active",
        "intent": "order",
        "category": [
          {
            "coding": [
              {
                "system": "http://snomed.info/sct",
                "code": "108252007",
                "display": "Laboratory procedure"
              }
            ]
          }
        ],
        "priority": "routine",
        "code": {
          "coding": [
            {
              "system": "http://snomed.info/sct",
              "code": "166312007",
              "display": "Blood chemistry (procedure)"
            }
          ]
        },
        "subject": {
          "reference": "Patient/patientBSJ1"
        },
        "occurrenceDateTime": "2024-05-28",
        "authoredOn": "2024-05-18",
        "requester": {
          "reference": "PractitionerRole/Role-SNFDoc-GeraldPark"
        },
        "reasonReference": [
          {
            "reference": "Condition/BSJ-AnemiaDiagnosis"
          },
          {
            "reference": "Condition/BSJ-Hyperlipidemia"
          },
          {
            "reference": "Condition/BSJ-KidneyDisease"
          },
          {
            "reference": "Condition/BSJ-DiabetesDiagnosis"
          }
        ]
      }
    },
    {
      "fullUrl": "https://gw.interop.community/MiHIN/open/ServiceRequest/BSJ-SNFDischargeLabOrderCBC",
      "resource": {
        "resourceType": "ServiceRequest",
        "id": "BSJ-SNFDischargeLabOrderCBC",
        "meta": {
          "profile": [
            "http://hl7.org/fhir/us/core/StructureDefinition/us-core-servicerequest"
          ]
        },
        "text": {
          "status": "generated",
          "div": "<div xmlns=\"http://www.w3.org/1999/xhtml\"><a name=\"ServiceRequest_BSJ-SNFDischargeLabOrderCBC\"> </a><p><b>Generated Narrative: ServiceRequest</b><a name=\"BSJ-SNFDischargeLabOrderCBC\"> </a><a name=\"hcBSJ-SNFDischargeLabOrderCBC\"> </a></p><div style=\"display: inline-block; background-color: #d9e0e7; padding: 6px; margin: 4px; border: 1px solid #8da1b4; border-radius: 5px; line-height: 60%\"><p style=\"margin-bottom: 0px\">ResourceServiceRequest &quot;BSJ-SNFDischargeLabOrderCBC&quot; </p><p style=\"margin-bottom: 0px\">Profile: <a href=\"http://hl7.org/fhir/us/core/STU6.1/StructureDefinition-us-core-servicerequest.html\">US Core ServiceRequest Profile</a></p></div><p><b>status</b>: active</p><p><b>intent</b>: order</p><p><b>category</b>: Laboratory procedure <span style=\"background: LightGoldenRodYellow; margin: 4px; border: 1px solid khaki\"> (<a href=\"https://browser.ihtsdotools.org/\">SNOWMED CT</a>#108252007)</span></p><p><b>priority</b>: routine</p><p><b>code</b>: Complete blood count without differential (procedure) <span style=\"background: LightGoldenRodYellow; margin: 4px; border: 1px solid khaki\"> (<a href=\"https://browser.ihtsdotools.org/\">SNOWMED CT</a>#43789009)</span></p><p><b>subject</b>: See on this page: Patient/patientBSJ1</p><p><b>occurrence</b>: 2024-05-28</p><p><b>authoredOn</b>: 2024-05-18</p><p><b>requester</b>: See on this page: PractitionerRole/Role-SNFDoc-GeraldPark</p><p><b>reasonReference</b>: See on this page: Condition/BSJ-AnemiaDiagnosis</p></div>"
        },
        "status": "active",
        "intent": "order",
        "category": [
          {
            "coding": [
              {
                "system": "http://snomed.info/sct",
                "code": "108252007",
                "display": "Laboratory procedure"
              }
            ]
          }
        ],
        "priority": "routine",
        "code": {
          "coding": [
            {
              "system": "http://snomed.info/sct",
              "code": "43789009",
              "display": "Complete blood count without differential (procedure)"
            }
          ]
        },
        "subject": {
          "reference": "Patient/patientBSJ1"
        },
        "occurrenceDateTime": "2024-05-28",
        "authoredOn": "2024-05-18",
        "requester": {
          "reference": "PractitionerRole/Role-SNFDoc-GeraldPark"
        },
        "reasonReference": [
          {
            "reference": "Condition/BSJ-AnemiaDiagnosis"
          }
        ]
      }
    },
    {
      "fullUrl": "https://gw.interop.community/MiHIN/open/ServiceRequest/BSJ-SNFDischargePTRefer",
      "resource": {
        "resourceType": "ServiceRequest",
        "id": "BSJ-SNFDischargePTRefer",
        "meta": {
          "profile": [
            "http://hl7.org/fhir/us/core/StructureDefinition/us-core-servicerequest"
          ]
        },
        "text": {
          "status": "generated",
          "div": "<div xmlns=\"http://www.w3.org/1999/xhtml\"><a name=\"ServiceRequest_BSJ-SNFDischargePTRefer\"> </a><p><b>Generated Narrative: ServiceRequest</b><a name=\"BSJ-SNFDischargePTRefer\"> </a><a name=\"hcBSJ-SNFDischargePTRefer\"> </a></p><div style=\"display: inline-block; background-color: #d9e0e7; padding: 6px; margin: 4px; border: 1px solid #8da1b4; border-radius: 5px; line-height: 60%\"><p style=\"margin-bottom: 0px\">ResourceServiceRequest &quot;BSJ-SNFDischargePTRefer&quot; </p><p style=\"margin-bottom: 0px\">Profile: <a href=\"http://hl7.org/fhir/us/core/STU6.1/StructureDefinition-us-core-servicerequest.html\">US Core ServiceRequest Profile</a></p></div><p><b>status</b>: active</p><p><b>intent</b>: order</p><p><b>category</b>: Evaluation procedure (procedure) <span style=\"background: LightGoldenRodYellow; margin: 4px; border: 1px solid khaki\"> (<a href=\"https://browser.ihtsdotools.org/\">SNOWMED CT</a>#386053000)</span></p><p><b>priority</b>: routine</p><p><b>code</b>: Physical therapy assessment (procedure) <span style=\"background: LightGoldenRodYellow; margin: 4px; border: 1px solid khaki\"> (<a href=\"https://browser.ihtsdotools.org/\">SNOWMED CT</a>#410158009)</span></p><p><b>subject</b>: See on this page: Patient/patientBSJ1</p><p><b>occurrence</b>: 2024-05-18 --&gt; (ongoing)</p><p><b>authoredOn</b>: 2024-05-18</p><p><b>requester</b>: See on this page: PractitionerRole/Role-SNFDoc-GeraldPark</p><p><b>reasonReference</b>: See on this page: Condition/BSJ-HemiparesisDiagnosis</p></div>"
        },
        "status": "active",
        "intent": "order",
        "category": [
          {
            "coding": [
              {
                "system": "http://snomed.info/sct",
                "code": "386053000",
                "display": "Evaluation procedure (procedure)"
              }
            ]
          }
        ],
        "priority": "routine",
        "code": {
          "coding": [
            {
              "system": "http://snomed.info/sct",
              "code": "410158009",
              "display": "Physical therapy assessment (procedure)"
            }
          ]
        },
        "subject": {
          "reference": "Patient/patientBSJ1"
        },
        "occurrencePeriod": {
          "start": "2024-05-18"
        },
        "authoredOn": "2024-05-18",
        "requester": {
          "reference": "PractitionerRole/Role-SNFDoc-GeraldPark"
        },
        "reasonReference": [
          {
            "reference": "Condition/BSJ-HemiparesisDiagnosis"
          }
        ]
      }
    },
    {
      "fullUrl": "https://gw.interop.community/MiHIN/open/Location/org-Loc-Everyday-Community-Pharm",
      "resource": {
        "resourceType": "Location",
        "id": "org-Loc-Everyday-Community-Pharm",
        "meta": {
          "profile": [
            "http://hl7.org/fhir/us/core/StructureDefinition/us-core-location"
          ]
        },
        "text": {
          "status": "generated",
          "div": "<div xmlns=\"http://www.w3.org/1999/xhtml\"><a name=\"Location_org-Loc-Everyday-Community-Pharm\"> </a><p><b>Generated Narrative: Location</b><a name=\"org-Loc-Everyday-Community-Pharm\"> </a><a name=\"hcorg-Loc-Everyday-Community-Pharm\"> </a></p><div style=\"display: inline-block; background-color: #d9e0e7; padding: 6px; margin: 4px; border: 1px solid #8da1b4; border-radius: 5px; line-height: 60%\"><p style=\"margin-bottom: 0px\">ResourceLocation &quot;org-Loc-Everyday-Community-Pharm&quot; </p><p style=\"margin-bottom: 0px\">Profile: <a href=\"http://hl7.org/fhir/us/core/STU6.1/StructureDefinition-us-core-location.html\">US Core Location Profile</a></p></div><p><b>status</b>: active</p><p><b>name</b>: Everyday Community Pharmacy</p><p><b>address</b>: 125 Yew St, Grand Rapids, MI 49503</p></div>"
        },
        "status": "active",
        "name": "Everyday Community Pharmacy",
        "address": {
          "text": "125 Yew St, Grand Rapids, MI 49503",
          "line": [
            "125 Yew St"
          ],
          "city": "Grand Rapids",
          "state": "MI",
          "postalCode": "49503",
          "country": "US"
        }
      }
    },
    {
      "fullUrl": "https://gw.interop.community/MiHIN/open/Location/org-Loc-NED-Contract-Pharm",
      "resource": {
        "resourceType": "Location",
        "id": "org-Loc-NED-Contract-Pharm",
        "meta": {
          "profile": [
            "http://hl7.org/fhir/us/core/StructureDefinition/us-core-location"
          ]
        },
        "text": {
          "status": "generated",
          "div": "<div xmlns=\"http://www.w3.org/1999/xhtml\"><a name=\"Location_org-Loc-NED-Contract-Pharm\"> </a><p><b>Generated Narrative: Location</b><a name=\"org-Loc-NED-Contract-Pharm\"> </a><a name=\"hcorg-Loc-NED-Contract-Pharm\"> </a></p><div style=\"display: inline-block; background-color: #d9e0e7; padding: 6px; margin: 4px; border: 1px solid #8da1b4; border-radius: 5px; line-height: 60%\"><p style=\"margin-bottom: 0px\">ResourceLocation &quot;org-Loc-NED-Contract-Pharm&quot; </p><p style=\"margin-bottom: 0px\">Profile: <a href=\"http://hl7.org/fhir/us/core/STU6.1/StructureDefinition-us-core-location.html\">US Core Location Profile</a></p></div><p><b>status</b>: active</p><p><b>name</b>: Not Every Day Contract Pharmacy</p><p><b>address</b>: 155 Light Commercial Ave, Grand Rapids, MI 49509</p></div>"
        },
        "status": "active",
        "name": "Not Every Day Contract Pharmacy",
        "address": {
          "text": "155 Light Commercial Ave, Grand Rapids, MI 49509",
          "line": [
            "155 Light Commercial Ave"
          ],
          "city": "Grand Rapids",
          "state": "MI",
          "postalCode": "49509",
          "country": "US"
        }
      }
    },
    {
      "fullUrl": "https://gw.interop.community/MiHIN/open/Location/org-Loc-Neuro-Care-Inc",
      "resource": {
        "resourceType": "Location",
        "id": "org-Loc-Neuro-Care-Inc",
        "meta": {
          "profile": [
            "http://hl7.org/fhir/us/core/StructureDefinition/us-core-location"
          ]
        },
        "text": {
          "status": "generated",
          "div": "<div xmlns=\"http://www.w3.org/1999/xhtml\"><a name=\"Location_org-Loc-Neuro-Care-Inc\"> </a><p><b>Generated Narrative: Location</b><a name=\"org-Loc-Neuro-Care-Inc\"> </a><a name=\"hcorg-Loc-Neuro-Care-Inc\"> </a></p><div style=\"display: inline-block; background-color: #d9e0e7; padding: 6px; margin: 4px; border: 1px solid #8da1b4; border-radius: 5px; line-height: 60%\"><p style=\"margin-bottom: 0px\">ResourceLocation &quot;org-Loc-Neuro-Care-Inc&quot; </p><p style=\"margin-bottom: 0px\">Profile: <a href=\"http://hl7.org/fhir/us/core/STU6.1/StructureDefinition-us-core-location.html\">US Core Location Profile</a></p></div><p><b>status</b>: active</p><p><b>name</b>: Neuro Care Inc.</p><p><b>address</b>: 177 Branching Tree Blvd, Grand Rapids, MI 49509</p></div>"
        },
        "status": "active",
        "name": "Neuro Care Inc.",
        "address": {
          "text": "177 Branching Tree Blvd, Grand Rapids, MI 49509",
          "line": [
            "177 Branching Tree Blvd"
          ],
          "city": "Grand Rapids",
          "state": "MI",
          "postalCode": "49509",
          "country": "US"
        }
      }
    },
    {
      "fullUrl": "https://gw.interop.community/MiHIN/open/Location/org-Loc-PC-Primary-Care-Michigan",
      "resource": {
        "resourceType": "Location",
        "id": "org-Loc-PC-Primary-Care-Michigan",
        "meta": {
          "profile": [
            "http://hl7.org/fhir/us/core/StructureDefinition/us-core-location"
          ]
        },
        "text": {
          "status": "generated",
          "div": "<div xmlns=\"http://www.w3.org/1999/xhtml\"><a name=\"Location_org-Loc-PC-Primary-Care-Michigan\"> </a><p><b>Generated Narrative: Location</b><a name=\"org-Loc-PC-Primary-Care-Michigan\"> </a><a name=\"hcorg-Loc-PC-Primary-Care-Michigan\"> </a></p><div style=\"display: inline-block; background-color: #d9e0e7; padding: 6px; margin: 4px; border: 1px solid #8da1b4; border-radius: 5px; line-height: 60%\"><p style=\"margin-bottom: 0px\">ResourceLocation &quot;org-Loc-PC-Primary-Care-Michigan&quot; </p><p style=\"margin-bottom: 0px\">Profile: <a href=\"http://hl7.org/fhir/us/core/STU6.1/StructureDefinition-us-core-location.html\">US Core Location Profile</a></p></div><p><b>status</b>: active</p><p><b>name</b>: Michigan Primary Health Care Associates</p><p><b>address</b>: 123 Spruce Dr. Grand Rapids, MI 49503</p></div>"
        },
        "status": "active",
        "name": "Michigan Primary Health Care Associates",
        "address": {
          "text": "123 Spruce Dr. Grand Rapids, MI 49503",
          "line": [
            "123 Spruce Dr"
          ],
          "city": "Grand Rapids",
          "state": "MI",
          "postalCode": "49503",
          "country": "US"
        }
      }
    },
    {
      "fullUrl": "https://gw.interop.community/MiHIN/open/Location/org-Loc-SNF-Happy-Nursing-Facility",
      "resource": {
        "resourceType": "Location",
        "id": "org-Loc-SNF-Happy-Nursing-Facility",
        "meta": {
          "profile": [
            "http://hl7.org/fhir/us/core/StructureDefinition/us-core-location"
          ]
        },
        "text": {
          "status": "generated",
          "div": "<div xmlns=\"http://www.w3.org/1999/xhtml\"><a name=\"Location_org-Loc-SNF-Happy-Nursing-Facility\"> </a><p><b>Generated Narrative: Location</b><a name=\"org-Loc-SNF-Happy-Nursing-Facility\"> </a><a name=\"hcorg-Loc-SNF-Happy-Nursing-Facility\"> </a></p><div style=\"display: inline-block; background-color: #d9e0e7; padding: 6px; margin: 4px; border: 1px solid #8da1b4; border-radius: 5px; line-height: 60%\"><p style=\"margin-bottom: 0px\">ResourceLocation &quot;org-Loc-SNF-Happy-Nursing-Facility&quot; </p><p style=\"margin-bottom: 0px\">Profile: <a href=\"http://hl7.org/fhir/us/core/STU6.1/StructureDefinition-us-core-location.html\">US Core Location Profile</a></p></div><p><b>status</b>: active</p><p><b>name</b>: Happy Nursing Facility</p><p><b>address</b>: 8100 Pinebrook Dr, Grand Rapids, MI 49504</p></div>"
        },
        "status": "active",
        "name": "Happy Nursing Facility",
        "address": {
          "text": "8100 Pinebrook Dr, Grand Rapids, MI 49504",
          "line": [
            "8100 Pinebrook Dr"
          ],
          "city": "Grand Rapids",
          "state": "MI",
          "postalCode": "49504",
          "country": "US"
        }
      }
    },
    {
      "fullUrl": "https://gw.interop.community/MiHIN/open/Organization/org-Neuro-Care-Inc",
      "resource": {
        "resourceType": "Organization",
        "id": "org-Neuro-Care-Inc",
        "meta": {
          "profile": [
            "http://hl7.org/fhir/us/core/StructureDefinition/us-core-organization"
          ]
        },
        "text": {
          "status": "generated",
          "div": "<div xmlns=\"http://www.w3.org/1999/xhtml\"><a name=\"Organization_org-Neuro-Care-Inc\"> </a><p><b>Generated Narrative: Organization</b><a name=\"org-Neuro-Care-Inc\"> </a><a name=\"hcorg-Neuro-Care-Inc\"> </a></p><div style=\"display: inline-block; background-color: #d9e0e7; padding: 6px; margin: 4px; border: 1px solid #8da1b4; border-radius: 5px; line-height: 60%\"><p style=\"margin-bottom: 0px\">ResourceOrganization &quot;org-Neuro-Care-Inc&quot; </p><p style=\"margin-bottom: 0px\">Profile: <a href=\"http://hl7.org/fhir/us/core/STU6.1/StructureDefinition-us-core-organization.html\">US Core Organization Profile</a></p></div><p><b>active</b>: true</p><p><b>name</b>: Neuro Care Inc.</p><p><b>telecom</b>: ph: (210) 555 5555</p><p><b>address</b>: 177 Branching Tree Blvd, Grand Rapids, MI 49509</p></div>"
        },
        "active": true,
        "name": "Neuro Care Inc.",
        "telecom": [
          {
            "system": "phone",
            "value": "(210) 555 5555"
          }
        ],
        "address": [
          {
            "text": "177 Branching Tree Blvd, Grand Rapids, MI 49509",
            "line": [
              "177 Branching Tree Blvd"
            ],
            "city": "Grand Rapids",
            "state": "MI",
            "postalCode": "49509",
            "country": "US"
          }
        ]
      }
    },
    {
      "fullUrl": "https://gw.interop.community/MiHIN/open/Organization/org-PC-Primary-Care-Michigan",
      "resource": {
        "resourceType": "Organization",
        "id": "org-PC-Primary-Care-Michigan",
        "meta": {
          "profile": [
            "http://hl7.org/fhir/us/core/StructureDefinition/us-core-organization"
          ]
        },
        "text": {
          "status": "generated",
          "div": "<div xmlns=\"http://www.w3.org/1999/xhtml\"><a name=\"Organization_org-PC-Primary-Care-Michigan\"> </a><p><b>Generated Narrative: Organization</b><a name=\"org-PC-Primary-Care-Michigan\"> </a><a name=\"hcorg-PC-Primary-Care-Michigan\"> </a></p><div style=\"display: inline-block; background-color: #d9e0e7; padding: 6px; margin: 4px; border: 1px solid #8da1b4; border-radius: 5px; line-height: 60%\"><p style=\"margin-bottom: 0px\">ResourceOrganization &quot;org-PC-Primary-Care-Michigan&quot; </p><p style=\"margin-bottom: 0px\">Profile: <a href=\"http://hl7.org/fhir/us/core/STU6.1/StructureDefinition-us-core-organization.html\">US Core Organization Profile</a></p></div><p><b>active</b>: true</p><p><b>name</b>: Michigan Primary Health Care Associates</p><p><b>telecom</b>: ph: (616) 555-1212</p><p><b>address</b>: 123 Spruce Dr. Grand Rapids, MI 49503</p></div>"
        },
        "active": true,
        "name": "Michigan Primary Health Care Associates",
        "telecom": [
          {
            "system": "phone",
            "value": "(616) 555-1212"
          }
        ],
        "address": [
          {
            "text": "123 Spruce Dr. Grand Rapids, MI 49503",
            "line": [
              "123 Spruce Dr"
            ],
            "city": "Grand Rapids",
            "state": "MI",
            "postalCode": "49503",
            "country": "US"
          }
        ]
      }
    },
    {
      "fullUrl": "https://gw.interop.community/MiHIN/open/Organization/org-Pharm-Everyday-Community-Pharm",
      "resource": {
        "resourceType": "Organization",
        "id": "org-Pharm-Everyday-Community-Pharm",
        "meta": {
          "profile": [
            "http://hl7.org/fhir/us/core/StructureDefinition/us-core-organization"
          ]
        },
        "text": {
          "status": "generated",
          "div": "<div xmlns=\"http://www.w3.org/1999/xhtml\"><a name=\"Organization_org-Pharm-Everyday-Community-Pharm\"> </a><p><b>Generated Narrative: Organization</b><a name=\"org-Pharm-Everyday-Community-Pharm\"> </a><a name=\"hcorg-Pharm-Everyday-Community-Pharm\"> </a></p><div style=\"display: inline-block; background-color: #d9e0e7; padding: 6px; margin: 4px; border: 1px solid #8da1b4; border-radius: 5px; line-height: 60%\"><p style=\"margin-bottom: 0px\">ResourceOrganization &quot;org-Pharm-Everyday-Community-Pharm&quot; </p><p style=\"margin-bottom: 0px\">Profile: <a href=\"http://hl7.org/fhir/us/core/STU6.1/StructureDefinition-us-core-organization.html\">US Core Organization Profile</a></p></div><p><b>active</b>: true</p><p><b>name</b>: Everyday Community Pharmacy</p><p><b>telecom</b>: ph: (610) 555 1893</p><p><b>address</b>: 125 Yew St, Grand Rapids, MI 49503</p></div>"
        },
        "active": true,
        "name": "Everyday Community Pharmacy",
        "telecom": [
          {
            "system": "phone",
            "value": "(610) 555 1893"
          }
        ],
        "address": [
          {
            "text": "125 Yew St, Grand Rapids, MI 49503",
            "line": [
              "125 Yew St"
            ],
            "city": "Grand Rapids",
            "state": "MI",
            "postalCode": "49503",
            "country": "US"
          }
        ]
      }
    },
    {
      "fullUrl": "https://gw.interop.community/MiHIN/open/Organization/org-Pharm-NED-Contract-Pharm",
      "resource": {
        "resourceType": "Organization",
        "id": "org-Pharm-NED-Contract-Pharm",
        "meta": {
          "profile": [
            "http://hl7.org/fhir/us/core/StructureDefinition/us-core-organization"
          ]
        },
        "text": {
          "status": "generated",
          "div": "<div xmlns=\"http://www.w3.org/1999/xhtml\"><a name=\"Organization_org-Pharm-NED-Contract-Pharm\"> </a><p><b>Generated Narrative: Organization</b><a name=\"org-Pharm-NED-Contract-Pharm\"> </a><a name=\"hcorg-Pharm-NED-Contract-Pharm\"> </a></p><div style=\"display: inline-block; background-color: #d9e0e7; padding: 6px; margin: 4px; border: 1px solid #8da1b4; border-radius: 5px; line-height: 60%\"><p style=\"margin-bottom: 0px\">ResourceOrganization &quot;org-Pharm-NED-Contract-Pharm&quot; </p><p style=\"margin-bottom: 0px\">Profile: <a href=\"http://hl7.org/fhir/us/core/STU6.1/StructureDefinition-us-core-organization.html\">US Core Organization Profile</a></p></div><p><b>active</b>: true</p><p><b>name</b>: Not Every Day Contract Pharmacy</p><p><b>telecom</b>: ph: (410) 588 4939</p><p><b>address</b>: 155 Light Commercial Ave, Grand Rapids, MI 49509</p></div>"
        },
        "active": true,
        "name": "Not Every Day Contract Pharmacy",
        "telecom": [
          {
            "system": "phone",
            "value": "(410) 588 4939"
          }
        ],
        "address": [
          {
            "text": "155 Light Commercial Ave, Grand Rapids, MI 49509",
            "line": [
              "155 Light Commercial Ave"
            ],
            "city": "Grand Rapids",
            "state": "MI",
            "postalCode": "49509",
            "country": "US"
          }
        ]
      }
    },
    {
      "fullUrl": "https://gw.interop.community/MiHIN/open/Organization/org-SNF-Happy-Nursing-Facility",
      "resource": {
        "resourceType": "Organization",
        "id": "org-SNF-Happy-Nursing-Facility",
        "meta": {
          "profile": [
            "http://hl7.org/fhir/us/core/StructureDefinition/us-core-organization"
          ]
        },
        "text": {
          "status": "generated",
          "div": "<div xmlns=\"http://www.w3.org/1999/xhtml\"><a name=\"Organization_org-SNF-Happy-Nursing-Facility\"> </a><p><b>Generated Narrative: Organization</b><a name=\"org-SNF-Happy-Nursing-Facility\"> </a><a name=\"hcorg-SNF-Happy-Nursing-Facility\"> </a></p><div style=\"display: inline-block; background-color: #d9e0e7; padding: 6px; margin: 4px; border: 1px solid #8da1b4; border-radius: 5px; line-height: 60%\"><p style=\"margin-bottom: 0px\">ResourceOrganization &quot;org-SNF-Happy-Nursing-Facility&quot; </p><p style=\"margin-bottom: 0px\">Profile: <a href=\"http://hl7.org/fhir/us/core/STU6.1/StructureDefinition-us-core-organization.html\">US Core Organization Profile</a></p></div><p><b>active</b>: true</p><p><b>name</b>: Happy Nursing Facility</p><p><b>telecom</b>: ph: (210) 555 1871</p><p><b>address</b>: 8100 Pinebrook Dr, Grand Rapids, MI 49504</p></div>"
        },
        "active": true,
        "name": "Happy Nursing Facility",
        "telecom": [
          {
            "system": "phone",
            "value": "(210) 555 1871"
          }
        ],
        "address": [
          {
            "text": "8100 Pinebrook Dr, Grand Rapids, MI 49504",
            "line": [
              "8100 Pinebrook Dr"
            ],
            "city": "Grand Rapids",
            "state": "MI",
            "postalCode": "49504",
            "country": "US"
          }
        ]
      }
    },
    {
      "fullUrl": "https://gw.interop.community/MiHIN/open/Practitioner/Example-AnitaChu",
      "resource": {
        "resourceType": "Practitioner",
        "id": "Example-AnitaChu",
        "meta": {
          "profile": [
            "http://hl7.org/fhir/us/core/StructureDefinition/us-core-practitioner"
          ]
        },
        "text": {
          "status": "generated",
          "div": "<div xmlns=\"http://www.w3.org/1999/xhtml\"><a name=\"Practitioner_Example-AnitaChu\"> </a><p><b>Generated Narrative: Practitioner</b><a name=\"Example-AnitaChu\"> </a><a name=\"hcExample-AnitaChu\"> </a></p><div style=\"display: inline-block; background-color: #d9e0e7; padding: 6px; margin: 4px; border: 1px solid #8da1b4; border-radius: 5px; line-height: 60%\"><p style=\"margin-bottom: 0px\">ResourcePractitioner &quot;Example-AnitaChu&quot; </p><p style=\"margin-bottom: 0px\">Profile: <a href=\"http://hl7.org/fhir/us/core/STU6.1/StructureDefinition-us-core-practitioner.html\">US Core Practitioner Profile</a></p></div><p><b>identifier</b>: <a href=\"http://terminology.hl7.org/5.0.0/NamingSystem-npi.html\" title=\"National Provider Identifier\">NPI</a>/8134258523</p><p><b>active</b>: true</p><p><b>name</b>: Anita Chu</p><p><b>telecom</b>: ph: (616) 555-1212</p><p><b>address</b>: 123 Spruce Dr. Grand Rapids, MI 49503</p><p><b>gender</b>: female</p></div>"
        },
        "identifier": [
          {
            "system": "http://hl7.org/fhir/sid/us-npi",
            "value": "8134258523"
          }
        ],
        "active": true,
        "name": [
          {
            "text": "Anita Chu",
            "family": "Chu",
            "given": [
              "Anita"
            ]
          }
        ],
        "telecom": [
          {
            "system": "phone",
            "value": "(616) 555-1212"
          }
        ],
        "address": [
          {
            "text": "123 Spruce Dr. Grand Rapids, MI 49503",
            "line": [
              "123 Spruce Dr"
            ],
            "city": "Grand Rapids",
            "state": "MI",
            "postalCode": "49503",
            "country": "US"
          }
        ],
        "gender": "female"
      }
    },
    {
      "fullUrl": "https://gw.interop.community/MiHIN/open/Practitioner/Example-GeraldPark",
      "resource": {
        "resourceType": "Practitioner",
        "id": "Example-GeraldPark",
        "meta": {
          "profile": [
            "http://hl7.org/fhir/us/core/StructureDefinition/us-core-practitioner"
          ]
        },
        "text": {
          "status": "generated",
          "div": "<div xmlns=\"http://www.w3.org/1999/xhtml\"><a name=\"Practitioner_Example-GeraldPark\"> </a><p><b>Generated Narrative: Practitioner</b><a name=\"Example-GeraldPark\"> </a><a name=\"hcExample-GeraldPark\"> </a></p><div style=\"display: inline-block; background-color: #d9e0e7; padding: 6px; margin: 4px; border: 1px solid #8da1b4; border-radius: 5px; line-height: 60%\"><p style=\"margin-bottom: 0px\">ResourcePractitioner &quot;Example-GeraldPark&quot; </p><p style=\"margin-bottom: 0px\">Profile: <a href=\"http://hl7.org/fhir/us/core/STU6.1/StructureDefinition-us-core-practitioner.html\">US Core Practitioner Profile</a></p></div><p><b>identifier</b>: <a href=\"http://terminology.hl7.org/5.0.0/NamingSystem-npi.html\" title=\"National Provider Identifier\">NPI</a>/8554084011</p><p><b>active</b>: true</p><p><b>name</b>: Gerald Park</p><p><b>telecom</b>: ph: (555) 566 3494</p><p><b>address</b>: 8100 Pinebrook Dr, Grand Rapids, MI 49504</p><p><b>gender</b>: male</p></div>"
        },
        "identifier": [
          {
            "system": "http://hl7.org/fhir/sid/us-npi",
            "value": "8554084011"
          }
        ],
        "active": true,
        "name": [
          {
            "text": "Gerald Park",
            "family": "Park",
            "given": [
              "Gerald"
            ]
          }
        ],
        "telecom": [
          {
            "system": "phone",
            "value": "(555) 566 3494"
          }
        ],
        "address": [
          {
            "text": "8100 Pinebrook Dr, Grand Rapids, MI 49504",
            "line": [
              "8100 Pinebrook Dr"
            ],
            "city": "Grand Rapids",
            "state": "MI",
            "postalCode": "49504",
            "country": "US"
          }
        ],
        "gender": "male"
      }
    },
    {
      "fullUrl": "https://gw.interop.community/MiHIN/open/Practitioner/Example-JenCadbury",
      "resource": {
        "resourceType": "Practitioner",
        "id": "Example-JenCadbury",
        "meta": {
          "profile": [
            "http://hl7.org/fhir/us/core/StructureDefinition/us-core-practitioner"
          ]
        },
        "text": {
          "status": "generated",
          "div": "<div xmlns=\"http://www.w3.org/1999/xhtml\"><a name=\"Practitioner_Example-JenCadbury\"> </a><p><b>Generated Narrative: Practitioner</b><a name=\"Example-JenCadbury\"> </a><a name=\"hcExample-JenCadbury\"> </a></p><div style=\"display: inline-block; background-color: #d9e0e7; padding: 6px; margin: 4px; border: 1px solid #8da1b4; border-radius: 5px; line-height: 60%\"><p style=\"margin-bottom: 0px\">ResourcePractitioner &quot;Example-JenCadbury&quot; </p><p style=\"margin-bottom: 0px\">Profile: <a href=\"http://hl7.org/fhir/us/core/STU6.1/StructureDefinition-us-core-practitioner.html\">US Core Practitioner Profile</a></p></div><p><b>identifier</b>: <a href=\"http://terminology.hl7.org/5.0.0/NamingSystem-npi.html\" title=\"National Provider Identifier\">NPI</a>/9635749481</p><p><b>active</b>: true</p><p><b>name</b>: Jen Cadbury</p><p><b>telecom</b>: ph: (210) 555 1871</p><p><b>address</b>: 8100 Pinebrook Dr, Grand Rapids, MI 49504</p><p><b>gender</b>: female</p></div>"
        },
        "identifier": [
          {
            "system": "http://hl7.org/fhir/sid/us-npi",
            "value": "9635749481"
          }
        ],
        "active": true,
        "name": [
          {
            "text": "Jen Cadbury",
            "family": "Cadbury",
            "given": [
              "Jen"
            ]
          }
        ],
        "telecom": [
          {
            "system": "phone",
            "value": "(210) 555 1871"
          }
        ],
        "address": [
          {
            "text": "8100 Pinebrook Dr, Grand Rapids, MI 49504",
            "line": [
              "8100 Pinebrook Dr"
            ],
            "city": "Grand Rapids",
            "state": "MI",
            "postalCode": "49504",
            "country": "US"
          }
        ],
        "gender": "female"
      }
    },
    {
      "fullUrl": "https://gw.interop.community/MiHIN/open/Practitioner/Example-NuraMekel",
      "resource": {
        "resourceType": "Practitioner",
        "id": "Example-NuraMekel",
        "meta": {
          "profile": [
            "http://hl7.org/fhir/us/core/StructureDefinition/us-core-practitioner"
          ]
        },
        "text": {
          "status": "generated",
          "div": "<div xmlns=\"http://www.w3.org/1999/xhtml\"><a name=\"Practitioner_Example-NuraMekel\"> </a><p><b>Generated Narrative: Practitioner</b><a name=\"Example-NuraMekel\"> </a><a name=\"hcExample-NuraMekel\"> </a></p><div style=\"display: inline-block; background-color: #d9e0e7; padding: 6px; margin: 4px; border: 1px solid #8da1b4; border-radius: 5px; line-height: 60%\"><p style=\"margin-bottom: 0px\">ResourcePractitioner &quot;Example-NuraMekel&quot; </p><p style=\"margin-bottom: 0px\">Profile: <a href=\"http://hl7.org/fhir/us/core/STU6.1/StructureDefinition-us-core-practitioner.html\">US Core Practitioner Profile</a></p></div><p><b>identifier</b>: <a href=\"http://terminology.hl7.org/5.0.0/NamingSystem-npi.html\" title=\"National Provider Identifier\">NPI</a>/8224780964</p><p><b>active</b>: true</p><p><b>name</b>: Nura Mekel</p><p><b>telecom</b>: ph: (210) 555 5555</p><p><b>address</b>: 177 Branching Tree Blvd, Grand Rapids, MI 49509</p><p><b>gender</b>: female</p></div>"
        },
        "identifier": [
          {
            "system": "http://hl7.org/fhir/sid/us-npi",
            "value": "8224780964"
          }
        ],
        "active": true,
        "name": [
          {
            "text": "Nura Mekel",
            "family": "Mekel",
            "given": [
              "Nura"
            ]
          }
        ],
        "telecom": [
          {
            "system": "phone",
            "value": "(210) 555 5555"
          }
        ],
        "address": [
          {
            "text": "177 Branching Tree Blvd, Grand Rapids, MI 49509",
            "line": [
              "177 Branching Tree Blvd"
            ],
            "city": "Grand Rapids",
            "state": "MI",
            "postalCode": "49509",
            "country": "US"
          }
        ],
        "gender": "female"
      }
    },
    {
      "fullUrl": "https://gw.interop.community/MiHIN/open/Practitioner/Example-Phil-Chekhov",
      "resource": {
        "resourceType": "Practitioner",
        "id": "Example-Phil-Chekhov",
        "meta": {
          "profile": [
            "http://hl7.org/fhir/us/core/StructureDefinition/us-core-practitioner"
          ]
        },
        "text": {
          "status": "generated",
          "div": "<div xmlns=\"http://www.w3.org/1999/xhtml\"><a name=\"Practitioner_Example-Phil-Chekhov\"> </a><p><b>Generated Narrative: Practitioner</b><a name=\"Example-Phil-Chekhov\"> </a><a name=\"hcExample-Phil-Chekhov\"> </a></p><div style=\"display: inline-block; background-color: #d9e0e7; padding: 6px; margin: 4px; border: 1px solid #8da1b4; border-radius: 5px; line-height: 60%\"><p style=\"margin-bottom: 0px\">ResourcePractitioner &quot;Example-Phil-Chekhov&quot; </p><p style=\"margin-bottom: 0px\">Profile: <a href=\"http://hl7.org/fhir/us/core/STU6.1/StructureDefinition-us-core-practitioner.html\">US Core Practitioner Profile</a></p></div><p><b>identifier</b>: <a href=\"http://terminology.hl7.org/5.0.0/NamingSystem-npi.html\" title=\"National Provider Identifier\">NPI</a>/6096712826</p><p><b>active</b>: true</p><p><b>name</b>: Phil Chekhov</p><p><b>telecom</b>: ph: (610) 555 1893</p><p><b>address</b>: 125 Yew St, Grand Rapids, MI 49503</p><p><b>gender</b>: male</p></div>"
        },
        "identifier": [
          {
            "system": "http://hl7.org/fhir/sid/us-npi",
            "value": "6096712826"
          }
        ],
        "active": true,
        "name": [
          {
            "text": "Phil Chekhov",
            "family": "Chekhov",
            "given": [
              "Phil"
            ]
          }
        ],
        "telecom": [
          {
            "system": "phone",
            "value": "(610) 555 1893"
          }
        ],
        "address": [
          {
            "text": "125 Yew St, Grand Rapids, MI 49503",
            "line": [
              "125 Yew St"
            ],
            "city": "Grand Rapids",
            "state": "MI",
            "postalCode": "49503",
            "country": "US"
          }
        ],
        "gender": "male"
      }
    },
    {
      "fullUrl": "https://gw.interop.community/MiHIN/open/Practitioner/Example-Tracy-Count",
      "resource": {
        "resourceType": "Practitioner",
        "id": "Example-Tracy-Count",
        "meta": {
          "profile": [
            "http://hl7.org/fhir/us/core/StructureDefinition/us-core-practitioner"
          ]
        },
        "text": {
          "status": "generated",
          "div": "<div xmlns=\"http://www.w3.org/1999/xhtml\"><a name=\"Practitioner_Example-Tracy-Count\"> </a><p><b>Generated Narrative: Practitioner</b><a name=\"Example-Tracy-Count\"> </a><a name=\"hcExample-Tracy-Count\"> </a></p><div style=\"display: inline-block; background-color: #d9e0e7; padding: 6px; margin: 4px; border: 1px solid #8da1b4; border-radius: 5px; line-height: 60%\"><p style=\"margin-bottom: 0px\">ResourcePractitioner &quot;Example-Tracy-Count&quot; </p><p style=\"margin-bottom: 0px\">Profile: <a href=\"http://hl7.org/fhir/us/core/STU6.1/StructureDefinition-us-core-practitioner.html\">US Core Practitioner Profile</a></p></div><p><b>identifier</b>: <a href=\"http://terminology.hl7.org/5.0.0/NamingSystem-npi.html\" title=\"National Provider Identifier\">NPI</a>/2473724138</p><p><b>active</b>: true</p><p><b>name</b>: Tracy Count</p><p><b>telecom</b>: ph: (410) 588 4939</p><p><b>address</b>: 155 Light Commercial Ave, Grand Rapids, MI 49509</p><p><b>gender</b>: female</p></div>"
        },
        "identifier": [
          {
            "system": "http://hl7.org/fhir/sid/us-npi",
            "value": "2473724138"
          }
        ],
        "active": true,
        "name": [
          {
            "text": "Tracy Count",
            "family": "Count",
            "given": [
              "Tracy"
            ]
          }
        ],
        "telecom": [
          {
            "system": "phone",
            "value": "(410) 588 4939"
          }
        ],
        "address": [
          {
            "text": "155 Light Commercial Ave, Grand Rapids, MI 49509",
            "line": [
              "155 Light Commercial Ave"
            ],
            "city": "Grand Rapids",
            "state": "MI",
            "postalCode": "49509",
            "country": "US"
          }
        ],
        "gender": "female"
      }
    },
    {
      "fullUrl": "https://gw.interop.community/MiHIN/open/PractitionerRole/Role-IMMD-AnitaChu",
      "resource": {
        "resourceType": "PractitionerRole",
        "id": "Role-IMMD-AnitaChu",
        "meta": {
          "profile": [
            "http://hl7.org/fhir/us/core/StructureDefinition/us-core-practitionerrole"
          ]
        },
        "text": {
          "status": "generated",
          "div": "<div xmlns=\"http://www.w3.org/1999/xhtml\"><a name=\"PractitionerRole_Role-IMMD-AnitaChu\"> </a><p><b>Generated Narrative: PractitionerRole</b><a name=\"Role-IMMD-AnitaChu\"> </a><a name=\"hcRole-IMMD-AnitaChu\"> </a></p><div style=\"display: inline-block; background-color: #d9e0e7; padding: 6px; margin: 4px; border: 1px solid #8da1b4; border-radius: 5px; line-height: 60%\"><p style=\"margin-bottom: 0px\">ResourcePractitionerRole &quot;Role-IMMD-AnitaChu&quot; </p><p style=\"margin-bottom: 0px\">Profile: <a href=\"http://hl7.org/fhir/us/core/STU6.1/StructureDefinition-us-core-practitionerrole.html\">US Core PractitionerRole Profile</a></p></div><p><b>active</b>: true</p><p><b>practitioner</b>: See on this page: Practitioner/Example-AnitaChu: Dr. Anita Chu</p><p><b>organization</b>: See on this page: Organization/org-PC-Primary-Care-Michigan: Michigan Primary Health Care Associates</p><p><b>code</b>: Internal Medicine Physician <span style=\"background: LightGoldenRodYellow; margin: 4px; border: 1px solid khaki\"> (#207R00000X)</span></p><p><b>location</b>: See on this page: Location/org-Loc-PC-Primary-Care-Michigan</p></div>"
        },
        "active": true,
        "practitioner": {
          "reference": "Practitioner/Example-AnitaChu",
          "display": "Dr. Anita Chu"
        },
        "organization": {
          "reference": "Organization/org-PC-Primary-Care-Michigan",
          "display": "Michigan Primary Health Care Associates"
        },
        "code": [
          {
            "coding": [
              {
                "system": "https://taxonomy.nucc.org/",
                "code": "207R00000X",
                "display": "Internal Medicine Physician"
              }
            ]
          }
        ],
        "location": [
          {
            "reference": "Location/org-Loc-PC-Primary-Care-Michigan"
          }
        ]
      }
    },
    {
      "fullUrl": "https://gw.interop.community/MiHIN/open/PractitionerRole/Role-Neuro-NuraMekel",
      "resource": {
        "resourceType": "PractitionerRole",
        "id": "Role-Neuro-NuraMekel",
        "meta": {
          "profile": [
            "http://hl7.org/fhir/us/core/StructureDefinition/us-core-practitionerrole"
          ]
        },
        "text": {
          "status": "generated",
          "div": "<div xmlns=\"http://www.w3.org/1999/xhtml\"><a name=\"PractitionerRole_Role-Neuro-NuraMekel\"> </a><p><b>Generated Narrative: PractitionerRole</b><a name=\"Role-Neuro-NuraMekel\"> </a><a name=\"hcRole-Neuro-NuraMekel\"> </a></p><div style=\"display: inline-block; background-color: #d9e0e7; padding: 6px; margin: 4px; border: 1px solid #8da1b4; border-radius: 5px; line-height: 60%\"><p style=\"margin-bottom: 0px\">ResourcePractitionerRole &quot;Role-Neuro-NuraMekel&quot; </p><p style=\"margin-bottom: 0px\">Profile: <a href=\"http://hl7.org/fhir/us/core/STU6.1/StructureDefinition-us-core-practitionerrole.html\">US Core PractitionerRole Profile</a></p></div><p><b>active</b>: true</p><p><b>practitioner</b>: See on this page: Practitioner/Example-NuraMekel: Nura Mekel</p><p><b>organization</b>: See on this page: Organization/org-Neuro-Care-Inc: Neuro Care Inc.</p><p><b>code</b>: Neurology Physician <span style=\"background: LightGoldenRodYellow; margin: 4px; border: 1px solid khaki\"> (#2084N0400X)</span></p><p><b>location</b>: See on this page: Location/org-Loc-Neuro-Care-Inc</p></div>"
        },
        "active": true,
        "practitioner": {
          "reference": "Practitioner/Example-NuraMekel",
          "display": "Nura Mekel"
        },
        "organization": {
          "reference": "Organization/org-Neuro-Care-Inc",
          "display": "Neuro Care Inc."
        },
        "code": [
          {
            "coding": [
              {
                "system": "https://taxonomy.nucc.org/",
                "code": "2084N0400X",
                "display": "Neurology Physician"
              }
            ]
          }
        ],
        "location": [
          {
            "reference": "Location/org-Loc-Neuro-Care-Inc"
          }
        ]
      }
    },
    {
      "fullUrl": "https://gw.interop.community/MiHIN/open/PractitionerRole/Role-OT-JenCadbury",
      "resource": {
        "resourceType": "PractitionerRole",
        "id": "Role-OT-JenCadbury",
        "meta": {
          "profile": [
            "http://hl7.org/fhir/us/core/StructureDefinition/us-core-practitionerrole"
          ]
        },
        "text": {
          "status": "generated",
          "div": "<div xmlns=\"http://www.w3.org/1999/xhtml\"><a name=\"PractitionerRole_Role-OT-JenCadbury\"> </a><p><b>Generated Narrative: PractitionerRole</b><a name=\"Role-OT-JenCadbury\"> </a><a name=\"hcRole-OT-JenCadbury\"> </a></p><div style=\"display: inline-block; background-color: #d9e0e7; padding: 6px; margin: 4px; border: 1px solid #8da1b4; border-radius: 5px; line-height: 60%\"><p style=\"margin-bottom: 0px\">ResourcePractitionerRole &quot;Role-OT-JenCadbury&quot; </p><p style=\"margin-bottom: 0px\">Profile: <a href=\"http://hl7.org/fhir/us/core/STU6.1/StructureDefinition-us-core-practitionerrole.html\">US Core PractitionerRole Profile</a></p></div><p><b>active</b>: true</p><p><b>practitioner</b>: See on this page: Practitioner/Example-JenCadbury: Jen Cadbury</p><p><b>organization</b>: See on this page: Organization/org-SNF-Happy-Nursing-Facility: Happy Nursing Facility</p><p><b>code</b>: Occupational Therapist <span style=\"background: LightGoldenRodYellow; margin: 4px; border: 1px solid khaki\"> (#225X00000X)</span></p><p><b>location</b>: See on this page: Location/org-Loc-SNF-Happy-Nursing-Facility</p></div>"
        },
        "active": true,
        "practitioner": {
          "reference": "Practitioner/Example-JenCadbury",
          "display": "Jen Cadbury"
        },
        "organization": {
          "reference": "Organization/org-SNF-Happy-Nursing-Facility",
          "display": "Happy Nursing Facility"
        },
        "code": [
          {
            "coding": [
              {
                "system": "https://taxonomy.nucc.org/",
                "code": "225X00000X",
                "display": "Occupational Therapist"
              }
            ]
          }
        ],
        "location": [
          {
            "reference": "Location/org-Loc-SNF-Happy-Nursing-Facility"
          }
        ]
      }
    },
    {
      "fullUrl": "https://gw.interop.community/MiHIN/open/PractitionerRole/Role-Pharm-PhilChekhov",
      "resource": {
        "resourceType": "PractitionerRole",
        "id": "Role-Pharm-PhilChekhov",
        "meta": {
          "profile": [
            "http://hl7.org/fhir/us/core/StructureDefinition/us-core-practitionerrole"
          ]
        },
        "text": {
          "status": "generated",
          "div": "<div xmlns=\"http://www.w3.org/1999/xhtml\"><a name=\"PractitionerRole_Role-Pharm-PhilChekhov\"> </a><p><b>Generated Narrative: PractitionerRole</b><a name=\"Role-Pharm-PhilChekhov\"> </a><a name=\"hcRole-Pharm-PhilChekhov\"> </a></p><div style=\"display: inline-block; background-color: #d9e0e7; padding: 6px; margin: 4px; border: 1px solid #8da1b4; border-radius: 5px; line-height: 60%\"><p style=\"margin-bottom: 0px\">ResourcePractitionerRole &quot;Role-Pharm-PhilChekhov&quot; </p><p style=\"margin-bottom: 0px\">Profile: <a href=\"http://hl7.org/fhir/us/core/STU6.1/StructureDefinition-us-core-practitionerrole.html\">US Core PractitionerRole Profile</a></p></div><p><b>active</b>: true</p><p><b>practitioner</b>: See on this page: Practitioner/Example-Phil-Chekhov: Phil Chekhov</p><p><b>organization</b>: See on this page: Organization/org-Pharm-Everyday-Community-Pharm: Everyday Community Pharmacy</p><p><b>code</b>: Pharmacist <span style=\"background: LightGoldenRodYellow; margin: 4px; border: 1px solid khaki\"> (#183500000X)</span></p><p><b>location</b>: See on this page: Location/org-Loc-Everyday-Community-Pharm</p></div>"
        },
        "active": true,
        "practitioner": {
          "reference": "Practitioner/Example-Phil-Chekhov",
          "display": "Phil Chekhov"
        },
        "organization": {
          "reference": "Organization/org-Pharm-Everyday-Community-Pharm",
          "display": "Everyday Community Pharmacy"
        },
        "code": [
          {
            "coding": [
              {
                "system": "https://taxonomy.nucc.org/",
                "code": "183500000X",
                "display": "Pharmacist"
              }
            ]
          }
        ],
        "location": [
          {
            "reference": "Location/org-Loc-Everyday-Community-Pharm"
          }
        ]
      }
    },
    {
      "fullUrl": "https://gw.interop.community/MiHIN/open/PractitionerRole/Role-Pharm-TracyCount",
      "resource": {
        "resourceType": "PractitionerRole",
        "id": "Role-Pharm-TracyCount",
        "meta": {
          "profile": [
            "http://hl7.org/fhir/us/core/StructureDefinition/us-core-practitionerrole"
          ]
        },
        "text": {
          "status": "generated",
          "div": "<div xmlns=\"http://www.w3.org/1999/xhtml\"><a name=\"PractitionerRole_Role-Pharm-TracyCount\"> </a><p><b>Generated Narrative: PractitionerRole</b><a name=\"Role-Pharm-TracyCount\"> </a><a name=\"hcRole-Pharm-TracyCount\"> </a></p><div style=\"display: inline-block; background-color: #d9e0e7; padding: 6px; margin: 4px; border: 1px solid #8da1b4; border-radius: 5px; line-height: 60%\"><p style=\"margin-bottom: 0px\">ResourcePractitionerRole &quot;Role-Pharm-TracyCount&quot; </p><p style=\"margin-bottom: 0px\">Profile: <a href=\"http://hl7.org/fhir/us/core/STU6.1/StructureDefinition-us-core-practitionerrole.html\">US Core PractitionerRole Profile</a></p></div><p><b>active</b>: true</p><p><b>practitioner</b>: See on this page: Practitioner/Example-Tracy-Count: Tracy Count</p><p><b>organization</b>: See on this page: Organization/org-Pharm-NED-Contract-Pharm: Not Every Day Contract Pharmacy</p><p><b>code</b>: Pharmacist <span style=\"background: LightGoldenRodYellow; margin: 4px; border: 1px solid khaki\"> (#183500000X)</span></p><p><b>location</b>: See on this page: Location/org-Loc-NED-Contract-Pharm</p></div>"
        },
        "active": true,
        "practitioner": {
          "reference": "Practitioner/Example-Tracy-Count",
          "display": "Tracy Count"
        },
        "organization": {
          "reference": "Organization/org-Pharm-NED-Contract-Pharm",
          "display": "Not Every Day Contract Pharmacy"
        },
        "code": [
          {
            "coding": [
              {
                "system": "https://taxonomy.nucc.org/",
                "code": "183500000X",
                "display": "Pharmacist"
              }
            ]
          }
        ],
        "location": [
          {
            "reference": "Location/org-Loc-NED-Contract-Pharm"
          }
        ]
      }
    },
    {
      "fullUrl": "https://gw.interop.community/MiHIN/open/PractitionerRole/Role-SNFDoc-GeraldPark",
      "resource": {
        "resourceType": "PractitionerRole",
        "id": "Role-SNFDoc-GeraldPark",
        "meta": {
          "profile": [
            "http://hl7.org/fhir/us/core/StructureDefinition/us-core-practitionerrole"
          ]
        },
        "text": {
          "status": "generated",
          "div": "<div xmlns=\"http://www.w3.org/1999/xhtml\"><a name=\"PractitionerRole_Role-SNFDoc-GeraldPark\"> </a><p><b>Generated Narrative: PractitionerRole</b><a name=\"Role-SNFDoc-GeraldPark\"> </a><a name=\"hcRole-SNFDoc-GeraldPark\"> </a></p><div style=\"display: inline-block; background-color: #d9e0e7; padding: 6px; margin: 4px; border: 1px solid #8da1b4; border-radius: 5px; line-height: 60%\"><p style=\"margin-bottom: 0px\">ResourcePractitionerRole &quot;Role-SNFDoc-GeraldPark&quot; </p><p style=\"margin-bottom: 0px\">Profile: <a href=\"http://hl7.org/fhir/us/core/STU6.1/StructureDefinition-us-core-practitionerrole.html\">US Core PractitionerRole Profile</a></p></div><p><b>active</b>: true</p><p><b>practitioner</b>: See on this page: Practitioner/Example-GeraldPark: Gerald Park</p><p><b>organization</b>: See on this page: Organization/org-SNF-Happy-Nursing-Facility: Happy Nursing Facility</p><p><b>code</b>: Geriatric Medicine Physician <span style=\"background: LightGoldenRodYellow; margin: 4px; border: 1px solid khaki\"> (#207QG0300X)</span></p><p><b>location</b>: See on this page: Location/org-Loc-SNF-Happy-Nursing-Facility</p></div>"
        },
        "active": true,
        "practitioner": {
          "reference": "Practitioner/Example-GeraldPark",
          "display": "Gerald Park"
        },
        "organization": {
          "reference": "Organization/org-SNF-Happy-Nursing-Facility",
          "display": "Happy Nursing Facility"
        },
        "code": [
          {
            "coding": [
              {
                "system": "https://taxonomy.nucc.org/",
                "code": "207QG0300X",
                "display": "Geriatric Medicine Physician"
              }
            ]
          }
        ],
        "location": [
          {
            "reference": "Location/org-Loc-SNF-Happy-Nursing-Facility"
          }
        ]
      }
    }
  ]
}
